"prime" "trialID" "lexicality" "target" "cluster" "freqtarget" "stemunrelated" "unrelatedfreq" "lengthtarget" "lengthprime" "relatedness" "condition" "old20target" "old20prime" "stem" "freqcluster" "subjectID" "experimentID" "rotation" "handedness" "RT" "response" "orderID" "acc" "rtPrec" "accPrec" "morphInterference" "explInterp"
"accuseffo" 23012 "word" "albero" "effo" 3.713 "accusa" 3.606 6 9 "unrelated" "LF_orthog" 1 2.95 "accus" 1.88 "SS41" "MPF" 5 "D" 457 "word" 44 1 756 "1" NA NA
"accuseffo" 23012 "word" "albero" "effo" 3.713 "accusa" 3.606 6 9 "unrelated" "LF_orthog" 1 2.95 "accus" 1.88 "GL47" "MPF" 5 "S" 511 "word" 68 1 468 "1" NA NA
"accuseffo" 23012 "word" "albero" "effo" 3.713 "accusa" 3.606 6 9 "unrelated" "LF_orthog" 1 2.95 "accus" 1.88 "SE23" "MPF" 5 "D" 686 "word" 82 1 752 "1" NA NA
"accuseffo" 23012 "word" "albero" "effo" 3.713 "accusa" 3.606 6 9 "unrelated" "LF_orthog" 1 2.95 "accus" 1.88 "SP17" "MPF" 5 "D" 1233 "word" 82 1 508 "1" NA NA
"accuseffo" 23012 "word" "albero" "effo" 3.713 "accusa" 3.606 6 9 "unrelated" "LF_orthog" 1 2.95 "accus" 1.88 "RS56" "MPF" 5 "D" 540 "word" 134 1 590 "1" NA NA
"accuseffo" 23012 "word" "albero" "effo" 3.713 "accusa" 3.606 6 9 "unrelated" "LF_orthog" 1 2.95 "accus" 1.88 "AC29" "MPF" 5 "D" 508 "word" 39 1 551 "1" NA NA
"accuseffo" 23012 "word" "albero" "effo" 3.713 "accusa" 3.606 6 9 "unrelated" "LF_orthog" 1 2.95 "accus" 1.88 "MN5" "MPF" 5 "S" 481 "word" 73 1 566 "1" NA NA
"accuseffo" 23012 "word" "albero" "effo" 3.713 "accusa" 3.606 6 9 "unrelated" "LF_orthog" 1 2.95 "accus" 1.88 "SB35" "MPF" 5 "D" 809 "word" 79 1 712 "1" NA NA
"accuseffo" 23012 "word" "albero" "effo" 3.713 "accusa" 3.606 6 9 "unrelated" "LF_orthog" 1 2.95 "accus" 1.88 "AB53" "MPF" 5 "D" 482 "word" 122 1 517 "1" NA NA
"accuseffo" 23012 "word" "albero" "effo" 3.713 "accusa" 3.606 6 9 "unrelated" "LF_orthog" 1 2.95 "accus" 1.88 "MT11" "MPF" 5 "S" 599 "word" 90 1 687 "1" NA NA
"accusonna" 22012 "word" "albero" "onna" 3.713 "accusa" 3.606 6 9 "unrelated" "HF_orthog" 1 3.25 "accus" 4.759 "GP40" "MPF" 4 "D" 634 "word" 58 1 870 "1" NA NA
"accusonna" 22012 "word" "albero" "onna" 3.713 "accusa" 3.606 6 9 "unrelated" "HF_orthog" 1 3.25 "accus" 4.759 "FC52" "MPF" 4 "D" 820 "word" 79 1 555 "1" NA NA
"accusonna" 22012 "word" "albero" "onna" 3.713 "accusa" 3.606 6 9 "unrelated" "HF_orthog" 1 3.25 "accus" 4.759 "ADC28" "MPF" 4 "D" 455 "word" 48 1 453 "1" NA NA
"accusonna" 22012 "word" "albero" "onna" 3.713 "accusa" 3.606 6 9 "unrelated" "HF_orthog" 1 3.25 "accus" 4.759 "LJ22" "MPF" 4 "D" 513 "word" 90 1 596 "1" NA NA
"accusonna" 22012 "word" "albero" "onna" 3.713 "accusa" 3.606 6 9 "unrelated" "HF_orthog" 1 3.25 "accus" 4.759 "GC46" "MPF" 4 "D" 570 "word" 151 1 526 "1" NA NA
"accusonna" 22012 "word" "albero" "onna" 3.713 "accusa" 3.606 6 9 "unrelated" "HF_orthog" 1 3.25 "accus" 4.759 "MC16" "MPF" 4 "D" 733 "word" 45 1 553 "1" NA NA
"accusonna" 22012 "word" "albero" "onna" 3.713 "accusa" 3.606 6 9 "unrelated" "HF_orthog" 1 3.25 "accus" 4.759 "ADB4" "MPF" 4 "D" 597 "word" 90 1 1451 "0" NA NA
"accusonna" 22012 "word" "albero" "onna" 3.713 "accusa" 3.606 6 9 "unrelated" "HF_orthog" 1 3.25 "accus" 4.759 "VB10" "MPF" 4 "D" 571 "word" 90 1 598 "1" NA NA
"accusonna" 22012 "word" "albero" "onna" 3.713 "accusa" 3.606 6 9 "unrelated" "HF_orthog" 1 3.25 "accus" 4.759 "ACV34" "MPF" 4 "S" 624 "word" 79 1 547 "1" NA NA
"accusoso" 21012 "word" "albero" "oso" 3.713 "accusa" 3.606 6 8 "unrelated" "morphological" 1 2.5 "accus" 4.911 "MC3" "MPF" 3 "D" 834 "word" 79 1 698 "1" -0.00472054301516093 -0.03225054251952
"accusoso" 21012 "word" "albero" "oso" 3.713 "accusa" 3.606 6 8 "unrelated" "morphological" 1 2.5 "accus" 4.911 "LM21" "MPF" 3 "D" 638 "word" 79 1 662 "1" -0.00472054301516093 -0.03225054251952
"accusoso" 21012 "word" "albero" "oso" 3.713 "accusa" 3.606 6 8 "unrelated" "morphological" 1 2.5 "accus" 4.911 "EV51" "MPF" 3 "D" 776 "word" 79 1 681 "1" -0.00472054301516093 -0.03225054251952
"accusoso" 21012 "word" "albero" "oso" 3.713 "accusa" 3.606 6 8 "unrelated" "morphological" 1 2.5 "accus" 4.911 "AV45" "MPF" 3 "D" 515 "word" 102 1 700 "1" -0.00472054301516093 -0.03225054251952
"accusoso" 21012 "word" "albero" "oso" 3.713 "accusa" 3.606 6 8 "unrelated" "morphological" 1 2.5 "accus" 4.911 "CS33" "MPF" 3 "D" 459 "word" 82 1 547 "1" -0.00472054301516093 -0.03225054251952
"accusoso" 21012 "word" "albero" "oso" 3.713 "accusa" 3.606 6 8 "unrelated" "morphological" 1 2.5 "accus" 4.911 "FC39" "MPF" 3 "S" 587 "word" 62 1 675 "1" -0.00472054301516093 -0.03225054251952
"accusoso" 21012 "word" "albero" "oso" 3.713 "accusa" 3.606 6 8 "unrelated" "morphological" 1 2.5 "accus" 4.911 "AB9" "MPF" 3 "D" 469 "word" 79 1 877 "1" -0.00472054301516093 -0.03225054251952
"accusoso" 21012 "word" "albero" "oso" 3.713 "accusa" 3.606 6 8 "unrelated" "morphological" 1 2.5 "accus" 4.911 "GG27" "MPF" 3 "D" 838 "word" 104 1 636 "1" -0.00472054301516093 -0.03225054251952
"accusoso" 21012 "word" "albero" "oso" 3.713 "accusa" 3.606 6 8 "unrelated" "morphological" 1 2.5 "accus" 4.911 "MP15" "MPF" 3 "D" 697 "word" 44 1 769 "1" -0.00472054301516093 -0.03225054251952
"acetame" 11053 "word" "aceto" "ame" 2.446 "globo" 2.442 5 7 "related" "morphological" 1.1 2.4 "acet" 4.375 "SE23" "MPF" 5 "D" 785 "word" 61 1 816 "1" 0.00867310698720283 0.417904683671462
"acetame" 11053 "word" "aceto" "ame" 2.446 "globo" 2.442 5 7 "related" "morphological" 1.1 2.4 "acet" 4.375 "SS41" "MPF" 5 "D" 588 "word" 55 1 718 "1" 0.00867310698720283 0.417904683671462
"acetame" 11053 "word" "aceto" "ame" 2.446 "globo" 2.442 5 7 "related" "morphological" 1.1 2.4 "acet" 4.375 "SP17" "MPF" 5 "D" 530 "word" 61 1 1077 "1" 0.00867310698720283 0.417904683671462
"acetame" 11053 "word" "aceto" "ame" 2.446 "globo" 2.442 5 7 "related" "morphological" 1.1 2.4 "acet" 4.375 "AB53" "MPF" 5 "D" 511 "word" 75 1 889 "0" 0.00867310698720283 0.417904683671462
"acetame" 11053 "word" "aceto" "ame" 2.446 "globo" 2.442 5 7 "related" "morphological" 1.1 2.4 "acet" 4.375 "RS56" "MPF" 5 "D" 515 "nonword" 125 0 466 "1" 0.00867310698720283 0.417904683671462
"acetame" 11053 "word" "aceto" "ame" 2.446 "globo" 2.442 5 7 "related" "morphological" 1.1 2.4 "acet" 4.375 "GL47" "MPF" 5 "S" 452 "word" 155 1 482 "1" 0.00867310698720283 0.417904683671462
"acetame" 11053 "word" "aceto" "ame" 2.446 "globo" 2.442 5 7 "related" "morphological" 1.1 2.4 "acet" 4.375 "MN5" "MPF" 5 "S" 611 "word" 151 1 553 "1" 0.00867310698720283 0.417904683671462
"acetame" 11053 "word" "aceto" "ame" 2.446 "globo" 2.442 5 7 "related" "morphological" 1.1 2.4 "acet" 4.375 "AC29" "MPF" 5 "D" 556 "word" 60 1 1116 "1" 0.00867310698720283 0.417904683671462
"acetame" 11053 "word" "aceto" "ame" 2.446 "globo" 2.442 5 7 "related" "morphological" 1.1 2.4 "acet" 4.375 "SB35" "MPF" 5 "D" 701 "word" 140 1 788 "1" 0.00867310698720283 0.417904683671462
"acetame" 11053 "word" "aceto" "ame" 2.446 "globo" 2.442 5 7 "related" "morphological" 1.1 2.4 "acet" 4.375 "MT11" "MPF" 5 "S" 480 "word" 133 1 637 "1" 0.00867310698720283 0.417904683671462
"acetiaba" 13053 "word" "aceto" "iaba" 2.446 "globo" 2.442 5 8 "related" "LF_orthog" 1.1 3 "acet" 2.161 "EP37" "MPF" 1 "D" 535 "word" 133 1 1094 "1" NA NA
"acetiaba" 13053 "word" "aceto" "iaba" 2.446 "globo" 2.442 5 8 "related" "LF_orthog" 1.1 3 "acet" 2.161 "EM13" "MPF" 1 "D" 593 "word" 151 1 760 "1" NA NA
"acetiaba" 13053 "word" "aceto" "iaba" 2.446 "globo" 2.442 5 8 "related" "LF_orthog" 1.1 3 "acet" 2.161 "CF1" "MPF" 1 "D" 572 "word" 55 1 467 "1" NA NA
"acetiaba" 13053 "word" "aceto" "iaba" 2.446 "globo" 2.442 5 8 "related" "LF_orthog" 1.1 3 "acet" 2.161 "FD55" "MPF" 1 "D" 566 "word" 134 1 530 "1" NA NA
"acetiaba" 13053 "word" "aceto" "iaba" 2.446 "globo" 2.442 5 8 "related" "LF_orthog" 1.1 3 "acet" 2.161 "DM7" "MPF" 1 "D" 520 "word" 170 1 672 "1" NA NA
"acetiaba" 13053 "word" "aceto" "iaba" 2.446 "globo" 2.442 5 8 "related" "LF_orthog" 1.1 3 "acet" 2.161 "AG25" "MPF" 1 "D" 430 "word" 35 1 639 "1" NA NA
"acetiaba" 13053 "word" "aceto" "iaba" 2.446 "globo" 2.442 5 8 "related" "LF_orthog" 1.1 3 "acet" 2.161 "VA49" "MPF" 1 "D" 389 "word" 140 1 419 "0" NA NA
"acetiaba" 13053 "word" "aceto" "iaba" 2.446 "globo" 2.442 5 8 "related" "LF_orthog" 1.1 3 "acet" 2.161 "AC43" "MPF" 1 "D" 594 "word" 21 1 845 "1" NA NA
"acetiaba" 13053 "word" "aceto" "iaba" 2.446 "globo" 2.442 5 8 "related" "LF_orthog" 1.1 3 "acet" 2.161 "DS31" "MPF" 1 "D" 545 "word" 140 1 759 "1" NA NA
"acetiaba" 13053 "word" "aceto" "iaba" 2.446 "globo" 2.442 5 8 "related" "LF_orthog" 1.1 3 "acet" 2.161 "MVT19" "MPF" 1 "D" 683 "word" 140 1 781 "1" NA NA
"acetonna" 12053 "word" "aceto" "onna" 2.446 "globo" 2.442 5 8 "related" "HF_orthog" 1.1 2.9 "acet" 4.759 "MV48" "MPF" 6 "D" 528 "word" 55 1 555 "1" NA NA
"acetonna" 12053 "word" "aceto" "onna" 2.446 "globo" 2.442 5 8 "related" "HF_orthog" 1.1 2.9 "acet" 4.759 "GDL30" "MPF" 6 "D" 664 "word" 93 1 937 "1" NA NA
"acetonna" 12053 "word" "aceto" "onna" 2.446 "globo" 2.442 5 8 "related" "HF_orthog" 1.1 2.9 "acet" 4.759 "GF54" "MPF" 6 "D" 488 "word" 60 1 519 "1" NA NA
"acetonna" 12053 "word" "aceto" "onna" 2.446 "globo" 2.442 5 8 "related" "HF_orthog" 1.1 2.9 "acet" 4.759 "RE24" "MPF" 6 "S" 602 "word" 151 1 581 "1" NA NA
"acetonna" 12053 "word" "aceto" "onna" 2.446 "globo" 2.442 5 8 "related" "HF_orthog" 1.1 2.9 "acet" 4.759 "GS36" "MPF" 6 "D" 578 "word" 47 1 901 "1" NA NA
"acetonna" 12053 "word" "aceto" "onna" 2.446 "globo" 2.442 5 8 "related" "HF_orthog" 1.1 2.9 "acet" 4.759 "AA18" "MPF" 6 "D" 522 "word" 140 1 591 "1" NA NA
"acetonna" 12053 "word" "aceto" "onna" 2.446 "globo" 2.442 5 8 "related" "HF_orthog" 1.1 2.9 "acet" 4.759 "ZF42" "MPF" 6 "D" 564 "word" 55 1 823 "1" NA NA
"acetonna" 12053 "word" "aceto" "onna" 2.446 "globo" 2.442 5 8 "related" "HF_orthog" 1.1 2.9 "acet" 4.759 "CC6" "MPF" 6 "D" 580 "word" 170 1 516 "1" NA NA
"acetonna" 12053 "word" "aceto" "onna" 2.446 "globo" 2.442 5 8 "related" "HF_orthog" 1.1 2.9 "acet" 4.759 "SP12" "MPF" 6 "S" 559 "word" 34 1 647 "1" NA NA
"albereffo" 13012 "word" "albero" "effo" 3.713 "accusa" 3.606 6 9 "related" "LF_orthog" 1 2.8 "alber" 1.88 "IF14" "MPF" 2 "D" 655 "word" 151 1 557 "1" NA NA
"albereffo" 13012 "word" "albero" "effo" 3.713 "accusa" 3.606 6 9 "related" "LF_orthog" 1 2.8 "alber" 1.88 "LC44" "MPF" 2 "D" 498 "nonword" 146 0 531 "1" NA NA
"albereffo" 13012 "word" "albero" "effo" 3.713 "accusa" 3.606 6 9 "related" "LF_orthog" 1 2.8 "alber" 1.88 "MC26" "MPF" 2 "D" 430 "word" 101 1 513 "1" NA NA
"albereffo" 13012 "word" "albero" "effo" 3.713 "accusa" 3.606 6 9 "related" "LF_orthog" 1 2.8 "alber" 1.88 "DC2" "MPF" 2 "D" 707 "word" 90 1 727 "1" NA NA
"albereffo" 13012 "word" "albero" "effo" 3.713 "accusa" 3.606 6 9 "related" "LF_orthog" 1 2.8 "alber" 1.88 "SDC32" "MPF" 2 "D" 946 "word" 79 1 692 "1" NA NA
"albereffo" 13012 "word" "albero" "effo" 3.713 "accusa" 3.606 6 9 "related" "LF_orthog" 1 2.8 "alber" 1.88 "AF8" "MPF" 2 "D" 471 "word" 44 1 523 "0" NA NA
"albereffo" 13012 "word" "albero" "effo" 3.713 "accusa" 3.606 6 9 "related" "LF_orthog" 1 2.8 "alber" 1.88 "FLB20" "MPF" 2 "D" 787 "word" 44 1 813 "1" NA NA
"albereffo" 13012 "word" "albero" "effo" 3.713 "accusa" 3.606 6 9 "related" "LF_orthog" 1 2.8 "alber" 1.88 "AR50" "MPF" 2 "D" 521 "word" 79 1 708 "1" NA NA
"albereffo" 13012 "word" "albero" "effo" 3.713 "accusa" 3.606 6 9 "related" "LF_orthog" 1 2.8 "alber" 1.88 "MB38" "MPF" 2 "D" 486 "word" 20 1 536 "1" NA NA
"alberonna" 12012 "word" "albero" "onna" 3.713 "accusa" 3.606 6 9 "related" "HF_orthog" 1 2.9 "alber" 4.759 "MVT19" "MPF" 1 "D" 692 "word" 79 1 838 "1" NA NA
"alberonna" 12012 "word" "albero" "onna" 3.713 "accusa" 3.606 6 9 "related" "HF_orthog" 1 2.9 "alber" 4.759 "EM13" "MPF" 1 "D" 559 "word" 73 1 795 "1" NA NA
"alberonna" 12012 "word" "albero" "onna" 3.713 "accusa" 3.606 6 9 "related" "HF_orthog" 1 2.9 "alber" 4.759 "EP37" "MPF" 1 "D" 684 "word" 90 1 1295 "1" NA NA
"alberonna" 12012 "word" "albero" "onna" 3.713 "accusa" 3.606 6 9 "related" "HF_orthog" 1 2.9 "alber" 4.759 "AC43" "MPF" 1 "D" 493 "word" 31 1 527 "0" NA NA
"alberonna" 12012 "word" "albero" "onna" 3.713 "accusa" 3.606 6 9 "related" "HF_orthog" 1 2.9 "alber" 4.759 "DS31" "MPF" 1 "D" 445 "word" 79 1 690 "1" NA NA
"alberonna" 12012 "word" "albero" "onna" 3.713 "accusa" 3.606 6 9 "related" "HF_orthog" 1 2.9 "alber" 4.759 "CF1" "MPF" 1 "D" 404 "word" 44 1 662 "1" NA NA
"alberonna" 12012 "word" "albero" "onna" 3.713 "accusa" 3.606 6 9 "related" "HF_orthog" 1 2.9 "alber" 4.759 "VA49" "MPF" 1 "D" 471 "word" 79 1 510 "1" NA NA
"alberonna" 12012 "word" "albero" "onna" 3.713 "accusa" 3.606 6 9 "related" "HF_orthog" 1 2.9 "alber" 4.759 "DM7" "MPF" 1 "D" 616 "word" 30 1 858 "1" NA NA
"alberonna" 12012 "word" "albero" "onna" 3.713 "accusa" 3.606 6 9 "related" "HF_orthog" 1 2.9 "alber" 4.759 "AG25" "MPF" 1 "D" 532 "word" 21 1 563 "1" NA NA
"alberonna" 12012 "word" "albero" "onna" 3.713 "accusa" 3.606 6 9 "related" "HF_orthog" 1 2.9 "alber" 4.759 "FD55" "MPF" 1 "D" 479 "word" 150 1 914 "1" NA NA
"alberoso" 11012 "word" "albero" "oso" 3.713 "accusa" 3.606 6 8 "related" "morphological" 1 2.3 "alber" 4.911 "GS36" "MPF" 6 "D" 861 "word" 151 1 456 "1" 0.0645104351436546 1.51880471283479
"alberoso" 11012 "word" "albero" "oso" 3.713 "accusa" 3.606 6 8 "related" "morphological" 1 2.3 "alber" 4.911 "CC6" "MPF" 6 "D" 518 "word" 30 1 586 "1" 0.0645104351436546 1.51880471283479
"alberoso" 11012 "word" "albero" "oso" 3.713 "accusa" 3.606 6 8 "related" "morphological" 1 2.3 "alber" 4.911 "GF54" "MPF" 6 "D" 399 "word" 104 1 485 "1" 0.0645104351436546 1.51880471283479
"alberoso" 11012 "word" "albero" "oso" 3.713 "accusa" 3.606 6 8 "related" "morphological" 1 2.3 "alber" 4.911 "AA18" "MPF" 6 "D" 502 "word" 58 1 694 "1" 0.0645104351436546 1.51880471283479
"alberoso" 11012 "word" "albero" "oso" 3.713 "accusa" 3.606 6 8 "related" "morphological" 1 2.3 "alber" 4.911 "MV48" "MPF" 6 "D" 720 "word" 44 1 668 "1" 0.0645104351436546 1.51880471283479
"alberoso" 11012 "word" "albero" "oso" 3.713 "accusa" 3.606 6 8 "related" "morphological" 1 2.3 "alber" 4.911 "ZF42" "MPF" 6 "D" 540 "word" 44 1 822 "1" 0.0645104351436546 1.51880471283479
"alberoso" 11012 "word" "albero" "oso" 3.713 "accusa" 3.606 6 8 "related" "morphological" 1 2.3 "alber" 4.911 "GDL30" "MPF" 6 "D" 881 "word" 148 1 915 "1" 0.0645104351436546 1.51880471283479
"alberoso" 11012 "word" "albero" "oso" 3.713 "accusa" 3.606 6 8 "related" "morphological" 1 2.3 "alber" 4.911 "RE24" "MPF" 6 "S" 865 "word" 73 1 700 "1" 0.0645104351436546 1.51880471283479
"alberoso" 11012 "word" "albero" "oso" 3.713 "accusa" 3.606 6 8 "related" "morphological" 1 2.3 "alber" 4.911 "SP12" "MPF" 6 "S" 444 "word" 62 1 614 "1" 0.0645104351436546 1.51880471283479
"alloggibete" 23030 "word" "caviglia" "bete" 2.9 "alloggio" 2.894 8 11 "unrelated" "LF_orthog" 1.95 3.5 "alloggi" 2.818 "SB35" "MPF" 5 "D" 640 "word" 127 1 562 "1" NA NA
"alloggibete" 23030 "word" "caviglia" "bete" 2.9 "alloggio" 2.894 8 11 "unrelated" "LF_orthog" 1.95 3.5 "alloggi" 2.818 "AB53" "MPF" 5 "D" 508 "word" 139 1 628 "0" NA NA
"alloggibete" 23030 "word" "caviglia" "bete" 2.9 "alloggio" 2.894 8 11 "unrelated" "LF_orthog" 1.95 3.5 "alloggi" 2.818 "SP17" "MPF" 5 "D" 751 "word" 127 1 839 "1" NA NA
"alloggibete" 23030 "word" "caviglia" "bete" 2.9 "alloggio" 2.894 8 11 "unrelated" "LF_orthog" 1.95 3.5 "alloggi" 2.818 "AC29" "MPF" 5 "D" 557 "word" 117 1 556 "1" NA NA
"alloggibete" 23030 "word" "caviglia" "bete" 2.9 "alloggio" 2.894 8 11 "unrelated" "LF_orthog" 1.95 3.5 "alloggi" 2.818 "MT11" "MPF" 5 "S" 694 "word" 173 1 713 "1" NA NA
"alloggibete" 23030 "word" "caviglia" "bete" 2.9 "alloggio" 2.894 8 11 "unrelated" "LF_orthog" 1.95 3.5 "alloggi" 2.818 "RS56" "MPF" 5 "D" 619 "word" 139 1 598 "1" NA NA
"alloggibete" 23030 "word" "caviglia" "bete" 2.9 "alloggio" 2.894 8 11 "unrelated" "LF_orthog" 1.95 3.5 "alloggi" 2.818 "MN5" "MPF" 5 "S" 599 "word" 163 1 658 "1" NA NA
"alloggibete" 23030 "word" "caviglia" "bete" 2.9 "alloggio" 2.894 8 11 "unrelated" "LF_orthog" 1.95 3.5 "alloggi" 2.818 "SE23" "MPF" 5 "D" 692 "word" 127 1 0 "0" NA NA
"alloggibete" 23030 "word" "caviglia" "bete" 2.9 "alloggio" 2.894 8 11 "unrelated" "LF_orthog" 1.95 3.5 "alloggi" 2.818 "GL47" "MPF" 5 "S" 483 "word" 117 1 442 "1" NA NA
"alloggibete" 23030 "word" "caviglia" "bete" 2.9 "alloggio" 2.894 8 11 "unrelated" "LF_orthog" 1.95 3.5 "alloggi" 2.818 "SS41" "MPF" 5 "D" 704 "word" 109 1 485 "1" NA NA
"alloggiempo" 22030 "word" "caviglia" "empo" 2.9 "alloggio" 2.894 8 11 "unrelated" "HF_orthog" 1.95 3.55 "alloggi" 5.006 "ADB4" "MPF" 4 "D" 700 "word" 173 1 1041 "1" NA NA
"alloggiempo" 22030 "word" "caviglia" "empo" 2.9 "alloggio" 2.894 8 11 "unrelated" "HF_orthog" 1.95 3.55 "alloggi" 5.006 "LJ22" "MPF" 4 "D" 598 "word" 173 1 988 "1" NA NA
"alloggiempo" 22030 "word" "caviglia" "empo" 2.9 "alloggio" 2.894 8 11 "unrelated" "HF_orthog" 1.95 3.55 "alloggi" 5.006 "VB10" "MPF" 4 "D" 481 "word" 173 1 543 "1" NA NA
"alloggiempo" 22030 "word" "caviglia" "empo" 2.9 "alloggio" 2.894 8 11 "unrelated" "HF_orthog" 1.95 3.55 "alloggi" 5.006 "ADC28" "MPF" 4 "D" 624 "word" 63 1 772 "1" NA NA
"alloggiempo" 22030 "word" "caviglia" "empo" 2.9 "alloggio" 2.894 8 11 "unrelated" "HF_orthog" 1.95 3.55 "alloggi" 5.006 "GC46" "MPF" 4 "D" 535 "word" 167 1 595 "1" NA NA
"alloggiempo" 22030 "word" "caviglia" "empo" 2.9 "alloggio" 2.894 8 11 "unrelated" "HF_orthog" 1.95 3.55 "alloggi" 5.006 "FC52" "MPF" 4 "D" 537 "word" 127 1 469 "1" NA NA
"alloggiempo" 22030 "word" "caviglia" "empo" 2.9 "alloggio" 2.894 8 11 "unrelated" "HF_orthog" 1.95 3.55 "alloggi" 5.006 "MC16" "MPF" 4 "D" 574 "word" 156 1 846 "1" NA NA
"alloggiempo" 22030 "word" "caviglia" "empo" 2.9 "alloggio" 2.894 8 11 "unrelated" "HF_orthog" 1.95 3.55 "alloggi" 5.006 "ACV34" "MPF" 4 "S" 533 "word" 127 1 516 "1" NA NA
"alloggiempo" 22030 "word" "caviglia" "empo" 2.9 "alloggio" 2.894 8 11 "unrelated" "HF_orthog" 1.95 3.55 "alloggi" 5.006 "GP40" "MPF" 4 "D" 559 "word" 51 1 639 "1" NA NA
"alloggimente" 21030 "word" "caviglia" "mente" 2.9 "alloggio" 2.894 8 12 "unrelated" "morphological" 1.95 3.5 "alloggi" 5.521 "AB9" "MPF" 3 "D" 569 "word" 127 1 556 "1" 0.025330970713877 -0.895320400148354
"alloggimente" 21030 "word" "caviglia" "mente" 2.9 "alloggio" 2.894 8 12 "unrelated" "morphological" 1.95 3.5 "alloggi" 5.521 "CS33" "MPF" 3 "D" 542 "word" 127 1 701 "1" 0.025330970713877 -0.895320400148354
"alloggimente" 21030 "word" "caviglia" "mente" 2.9 "alloggio" 2.894 8 12 "unrelated" "morphological" 1.95 3.5 "alloggi" 5.521 "MC3" "MPF" 3 "D" 557 "word" 127 1 568 "1" 0.025330970713877 -0.895320400148354
"alloggimente" 21030 "word" "caviglia" "mente" 2.9 "alloggio" 2.894 8 12 "unrelated" "morphological" 1.95 3.5 "alloggi" 5.521 "GG27" "MPF" 3 "D" 657 "word" 138 1 585 "1" 0.025330970713877 -0.895320400148354
"alloggimente" 21030 "word" "caviglia" "mente" 2.9 "alloggio" 2.894 8 12 "unrelated" "morphological" 1.95 3.5 "alloggi" 5.521 "MP15" "MPF" 3 "D" 627 "word" 109 1 568 "1" 0.025330970713877 -0.895320400148354
"alloggimente" 21030 "word" "caviglia" "mente" 2.9 "alloggio" 2.894 8 12 "unrelated" "morphological" 1.95 3.5 "alloggi" 5.521 "AV45" "MPF" 3 "D" 850 "word" 83 1 597 "1" 0.025330970713877 -0.895320400148354
"alloggimente" 21030 "word" "caviglia" "mente" 2.9 "alloggio" 2.894 8 12 "unrelated" "morphological" 1.95 3.5 "alloggi" 5.521 "EV51" "MPF" 3 "D" 560 "word" 127 1 617 "1" 0.025330970713877 -0.895320400148354
"alloggimente" 21030 "word" "caviglia" "mente" 2.9 "alloggio" 2.894 8 12 "unrelated" "morphological" 1.95 3.5 "alloggi" 5.521 "FC39" "MPF" 3 "S" 538 "word" 168 1 718 "1" 0.025330970713877 -0.895320400148354
"alloggimente" 21030 "word" "caviglia" "mente" 2.9 "alloggio" 2.894 8 12 "unrelated" "morphological" 1.95 3.5 "alloggi" 5.521 "LM21" "MPF" 3 "D" 707 "word" 127 1 636 "1" 0.025330970713877 -0.895320400148354
"amigucro" 33143 "nonword" "forgo" "ucro" NA NA NA 5 8 "unrelated" "LF_orthog" 1.05 2.9 "amig" 2.453 "LC44" "MPF" 2 "D" 633 "nonword" 112 1 612 "1" NA NA
"amigucro" 33143 "nonword" "forgo" "ucro" NA NA NA 5 8 "unrelated" "LF_orthog" 1.05 2.9 "amig" 2.453 "GDL30" "MPF" 6 "D" 722 "nonword" 164 1 519 "1" NA NA
"amigucro" 33143 "nonword" "forgo" "ucro" NA NA NA 5 8 "unrelated" "LF_orthog" 1.05 2.9 "amig" 2.453 "MT11" "MPF" 5 "S" 554 "nonword" 158 1 729 "1" NA NA
"amigucro" 33143 "nonword" "forgo" "ucro" NA NA NA 5 8 "unrelated" "LF_orthog" 1.05 2.9 "amig" 2.453 "GC46" "MPF" 4 "D" 642 "nonword" 81 1 960 "1" NA NA
"amigucro" 33143 "nonword" "forgo" "ucro" NA NA NA 5 8 "unrelated" "LF_orthog" 1.05 2.9 "amig" 2.453 "AB9" "MPF" 3 "D" 1413 "nonword" 174 1 764 "1" NA NA
"amigucro" 33143 "nonword" "forgo" "ucro" NA NA NA 5 8 "unrelated" "LF_orthog" 1.05 2.9 "amig" 2.453 "EV51" "MPF" 3 "D" 713 "nonword" 174 1 590 "1" NA NA
"amigucro" 33143 "nonword" "forgo" "ucro" NA NA NA 5 8 "unrelated" "LF_orthog" 1.05 2.9 "amig" 2.453 "SE23" "MPF" 5 "D" 1349 "nonword" 154 1 985 "1" NA NA
"amigucro" 33143 "nonword" "forgo" "ucro" NA NA NA 5 8 "unrelated" "LF_orthog" 1.05 2.9 "amig" 2.453 "CF1" "MPF" 1 "D" 530 "nonword" 123 1 582 "1" NA NA
"amigucro" 33143 "nonword" "forgo" "ucro" NA NA NA 5 8 "unrelated" "LF_orthog" 1.05 2.9 "amig" 2.453 "GS36" "MPF" 6 "D" 625 "nonword" 170 1 601 "1" NA NA
"amigucro" 33143 "nonword" "forgo" "ucro" NA NA NA 5 8 "unrelated" "LF_orthog" 1.05 2.9 "amig" 2.453 "EP37" "MPF" 1 "D" 717 "nonword" 158 1 663 "1" NA NA
"amigucro" 33143 "nonword" "forgo" "ucro" NA NA NA 5 8 "unrelated" "LF_orthog" 1.05 2.9 "amig" 2.453 "AC43" "MPF" 1 "D" 688 "nonword" 56 1 1058 "1" NA NA
"amigucro" 33143 "nonword" "forgo" "ucro" NA NA NA 5 8 "unrelated" "LF_orthog" 1.05 2.9 "amig" 2.453 "IF14" "MPF" 2 "D" 899 "nonword" 170 1 590 "1" NA NA
"amigucro" 33143 "nonword" "forgo" "ucro" NA NA NA 5 8 "unrelated" "LF_orthog" 1.05 2.9 "amig" 2.453 "AF8" "MPF" 2 "D" 540 "nonword" 123 1 556 "1" NA NA
"amigucro" 33143 "nonword" "forgo" "ucro" NA NA NA 5 8 "unrelated" "LF_orthog" 1.05 2.9 "amig" 2.453 "LM21" "MPF" 3 "D" 889 "nonword" 174 1 700 "1" NA NA
"amigucro" 33143 "nonword" "forgo" "ucro" NA NA NA 5 8 "unrelated" "LF_orthog" 1.05 2.9 "amig" 2.453 "AB53" "MPF" 5 "D" 562 "nonword" 22 1 680 "1" NA NA
"amigucro" 33143 "nonword" "forgo" "ucro" NA NA NA 5 8 "unrelated" "LF_orthog" 1.05 2.9 "amig" 2.453 "MC16" "MPF" 4 "D" 803 "nonword" 77 1 0 "0" NA NA
"amigucro" 33143 "nonword" "forgo" "ucro" NA NA NA 5 8 "unrelated" "LF_orthog" 1.05 2.9 "amig" 2.453 "AG25" "MPF" 1 "D" 667 "nonword" 144 1 648 "1" NA NA
"amigucro" 33143 "nonword" "forgo" "ucro" NA NA NA 5 8 "unrelated" "LF_orthog" 1.05 2.9 "amig" 2.453 "LJ22" "MPF" 4 "D" 836 "nonword" 158 1 639 "1" NA NA
"amigucro" 33143 "nonword" "forgo" "ucro" NA NA NA 5 8 "unrelated" "LF_orthog" 1.05 2.9 "amig" 2.453 "GG27" "MPF" 3 "D" 715 "nonword" 21 1 527 "1" NA NA
"amigucro" 33143 "nonword" "forgo" "ucro" NA NA NA 5 8 "unrelated" "LF_orthog" 1.05 2.9 "amig" 2.453 "ZF42" "MPF" 6 "D" 686 "nonword" 123 1 719 "1" NA NA
"amigucro" 33143 "nonword" "forgo" "ucro" NA NA NA 5 8 "unrelated" "LF_orthog" 1.05 2.9 "amig" 2.453 "CC6" "MPF" 6 "D" 706 "nonword" 60 1 798 "1" NA NA
"amigucro" 33143 "nonword" "forgo" "ucro" NA NA NA 5 8 "unrelated" "LF_orthog" 1.05 2.9 "amig" 2.453 "SP12" "MPF" 6 "S" 820 "nonword" 140 1 667 "1" NA NA
"amigucro" 33143 "nonword" "forgo" "ucro" NA NA NA 5 8 "unrelated" "LF_orthog" 1.05 2.9 "amig" 2.453 "GL47" "MPF" 5 "S" 0 "NoResponse" 38 0 726 "1" NA NA
"amigucro" 33143 "nonword" "forgo" "ucro" NA NA NA 5 8 "unrelated" "LF_orthog" 1.05 2.9 "amig" 2.453 "MVT19" "MPF" 1 "D" 819 "nonword" 174 1 834 "1" NA NA
"amigucro" 33143 "nonword" "forgo" "ucro" NA NA NA 5 8 "unrelated" "LF_orthog" 1.05 2.9 "amig" 2.453 "MB38" "MPF" 2 "D" 674 "nonword" 74 1 553 "1" NA NA
"amigucro" 33143 "nonword" "forgo" "ucro" NA NA NA 5 8 "unrelated" "LF_orthog" 1.05 2.9 "amig" 2.453 "GP40" "MPF" 4 "D" 598 "nonword" 166 1 715 "1" NA NA
"amigucro" 33143 "nonword" "forgo" "ucro" NA NA NA 5 8 "unrelated" "LF_orthog" 1.05 2.9 "amig" 2.453 "ADB4" "MPF" 4 "D" 1368 "nonword" 158 1 857 "1" NA NA
"amigucro" 33143 "nonword" "forgo" "ucro" NA NA NA 5 8 "unrelated" "LF_orthog" 1.05 2.9 "amig" 2.453 "FC39" "MPF" 3 "S" 863 "nonword" 140 1 574 "1" NA NA
"amigucro" 33143 "nonword" "forgo" "ucro" NA NA NA 5 8 "unrelated" "LF_orthog" 1.05 2.9 "amig" 2.453 "SB35" "MPF" 5 "D" 815 "nonword" 174 1 563 "1" NA NA
"amigucro" 33143 "nonword" "forgo" "ucro" NA NA NA 5 8 "unrelated" "LF_orthog" 1.05 2.9 "amig" 2.453 "DC2" "MPF" 2 "D" 560 "nonword" 158 1 913 "1" NA NA
"amigucro" 33143 "nonword" "forgo" "ucro" NA NA NA 5 8 "unrelated" "LF_orthog" 1.05 2.9 "amig" 2.453 "MV48" "MPF" 6 "D" 1269 "nonword" 123 1 833 "1" NA NA
"amigucro" 33143 "nonword" "forgo" "ucro" NA NA NA 5 8 "unrelated" "LF_orthog" 1.05 2.9 "amig" 2.453 "AC29" "MPF" 5 "D" 737 "nonword" 47 1 650 "1" NA NA
"amigucro" 33143 "nonword" "forgo" "ucro" NA NA NA 5 8 "unrelated" "LF_orthog" 1.05 2.9 "amig" 2.453 "EM13" "MPF" 1 "D" 863 "nonword" 61 1 829 "1" NA NA
"amigucro" 33143 "nonword" "forgo" "ucro" NA NA NA 5 8 "unrelated" "LF_orthog" 1.05 2.9 "amig" 2.453 "RE24" "MPF" 6 "S" 758 "nonword" 61 1 711 "1" NA NA
"amigucro" 33143 "nonword" "forgo" "ucro" NA NA NA 5 8 "unrelated" "LF_orthog" 1.05 2.9 "amig" 2.453 "SDC32" "MPF" 2 "D" 655 "nonword" 174 1 557 "1" NA NA
"amigucro" 33143 "nonword" "forgo" "ucro" NA NA NA 5 8 "unrelated" "LF_orthog" 1.05 2.9 "amig" 2.453 "SS41" "MPF" 5 "D" 712 "nonword" 123 1 712 "1" NA NA
"amigucro" 33143 "nonword" "forgo" "ucro" NA NA NA 5 8 "unrelated" "LF_orthog" 1.05 2.9 "amig" 2.453 "RS56" "MPF" 5 "D" 517 "nonword" 91 1 528 "1" NA NA
"amigucro" 33143 "nonword" "forgo" "ucro" NA NA NA 5 8 "unrelated" "LF_orthog" 1.05 2.9 "amig" 2.453 "MP15" "MPF" 3 "D" 584 "nonword" 123 1 649 "1" NA NA
"amigucro" 33143 "nonword" "forgo" "ucro" NA NA NA 5 8 "unrelated" "LF_orthog" 1.05 2.9 "amig" 2.453 "FD55" "MPF" 1 "D" 755 "nonword" 108 1 780 "1" NA NA
"amigucro" 33143 "nonword" "forgo" "ucro" NA NA NA 5 8 "unrelated" "LF_orthog" 1.05 2.9 "amig" 2.453 "MN5" "MPF" 5 "S" 837 "nonword" 61 1 573 "1" NA NA
"amigucro" 33143 "nonword" "forgo" "ucro" NA NA NA 5 8 "unrelated" "LF_orthog" 1.05 2.9 "amig" 2.453 "MC26" "MPF" 2 "D" 585 "nonword" 81 1 697 "1" NA NA
"amigucro" 33143 "nonword" "forgo" "ucro" NA NA NA 5 8 "unrelated" "LF_orthog" 1.05 2.9 "amig" 2.453 "MC3" "MPF" 3 "D" 695 "nonword" 174 1 776 "1" NA NA
"amigucro" 33143 "nonword" "forgo" "ucro" NA NA NA 5 8 "unrelated" "LF_orthog" 1.05 2.9 "amig" 2.453 "GF54" "MPF" 6 "D" 515 "nonword" 169 1 483 "1" NA NA
"amigucro" 33143 "nonword" "forgo" "ucro" NA NA NA 5 8 "unrelated" "LF_orthog" 1.05 2.9 "amig" 2.453 "VB10" "MPF" 4 "D" 546 "nonword" 158 1 650 "1" NA NA
"amigucro" 33143 "nonword" "forgo" "ucro" NA NA NA 5 8 "unrelated" "LF_orthog" 1.05 2.9 "amig" 2.453 "CS33" "MPF" 3 "D" 758 "nonword" 154 1 730 "1" NA NA
"amigucro" 33143 "nonword" "forgo" "ucro" NA NA NA 5 8 "unrelated" "LF_orthog" 1.05 2.9 "amig" 2.453 "AV45" "MPF" 3 "D" 800 "nonword" 65 1 676 "1" NA NA
"amigucro" 33143 "nonword" "forgo" "ucro" NA NA NA 5 8 "unrelated" "LF_orthog" 1.05 2.9 "amig" 2.453 "AR50" "MPF" 2 "D" 1020 "nonword" 174 1 931 "1" NA NA
"amigucro" 33143 "nonword" "forgo" "ucro" NA NA NA 5 8 "unrelated" "LF_orthog" 1.05 2.9 "amig" 2.453 "SP17" "MPF" 5 "D" 556 "nonword" 154 1 821 "1" NA NA
"amigucro" 33143 "nonword" "forgo" "ucro" NA NA NA 5 8 "unrelated" "LF_orthog" 1.05 2.9 "amig" 2.453 "DS31" "MPF" 1 "D" 828 "nonword" 174 1 474 "1" NA NA
"amigucro" 33143 "nonword" "forgo" "ucro" NA NA NA 5 8 "unrelated" "LF_orthog" 1.05 2.9 "amig" 2.453 "ACV34" "MPF" 4 "S" 599 "nonword" 174 1 487 "1" NA NA
"amigucro" 33143 "nonword" "forgo" "ucro" NA NA NA 5 8 "unrelated" "LF_orthog" 1.05 2.9 "amig" 2.453 "DM7" "MPF" 1 "D" 619 "word" 60 0 444 "1" NA NA
"amigucro" 33143 "nonword" "forgo" "ucro" NA NA NA 5 8 "unrelated" "LF_orthog" 1.05 2.9 "amig" 2.453 "AA18" "MPF" 6 "D" 638 "nonword" 166 1 695 "1" NA NA
"amigucro" 33143 "nonword" "forgo" "ucro" NA NA NA 5 8 "unrelated" "LF_orthog" 1.05 2.9 "amig" 2.453 "FC52" "MPF" 4 "D" 823 "word" 174 0 717 "1" NA NA
"amigucro" 33143 "nonword" "forgo" "ucro" NA NA NA 5 8 "unrelated" "LF_orthog" 1.05 2.9 "amig" 2.453 "VA49" "MPF" 1 "D" 681 "nonword" 174 1 572 "1" NA NA
"amigucro" 33143 "nonword" "forgo" "ucro" NA NA NA 5 8 "unrelated" "LF_orthog" 1.05 2.9 "amig" 2.453 "FLB20" "MPF" 2 "D" 857 "nonword" 123 1 1154 "1" NA NA
"amigucro" 33143 "nonword" "forgo" "ucro" NA NA NA 5 8 "unrelated" "LF_orthog" 1.05 2.9 "amig" 2.453 "ADC28" "MPF" 4 "D" 529 "nonword" 68 1 502 "1" NA NA
"amuleterpe" 13056 "word" "amuleto" "erpe" 2.428 "asfalto" 2.425 7 10 "related" "LF_orthog" 1.95 3.9 "amulet" 2.328 "ADB4" "MPF" 4 "D" 560 "word" 24 1 814 "1" NA NA
"amuleterpe" 13056 "word" "amuleto" "erpe" 2.428 "asfalto" 2.425 7 10 "related" "LF_orthog" 1.95 3.9 "amulet" 2.328 "MC16" "MPF" 4 "D" 748 "word" 147 1 899 "1" NA NA
"amuleterpe" 13056 "word" "amuleto" "erpe" 2.428 "asfalto" 2.425 7 10 "related" "LF_orthog" 1.95 3.9 "amulet" 2.328 "VB10" "MPF" 4 "D" 527 "word" 24 1 630 "1" NA NA
"amuleterpe" 13056 "word" "amuleto" "erpe" 2.428 "asfalto" 2.425 7 10 "related" "LF_orthog" 1.95 3.9 "amulet" 2.328 "FC52" "MPF" 4 "D" 578 "word" 36 1 703 "1" NA NA
"amuleterpe" 13056 "word" "amuleto" "erpe" 2.428 "asfalto" 2.425 7 10 "related" "LF_orthog" 1.95 3.9 "amulet" 2.328 "ACV34" "MPF" 4 "S" 560 "word" 36 1 524 "1" NA NA
"amuleterpe" 13056 "word" "amuleto" "erpe" 2.428 "asfalto" 2.425 7 10 "related" "LF_orthog" 1.95 3.9 "amulet" 2.328 "GP40" "MPF" 4 "D" 559 "word" 78 1 715 "1" NA NA
"amuleterpe" 13056 "word" "amuleto" "erpe" 2.428 "asfalto" 2.425 7 10 "related" "LF_orthog" 1.95 3.9 "amulet" 2.328 "LJ22" "MPF" 4 "D" 686 "word" 24 1 593 "1" NA NA
"amuleterpe" 13056 "word" "amuleto" "erpe" 2.428 "asfalto" 2.425 7 10 "related" "LF_orthog" 1.95 3.9 "amulet" 2.328 "ADC28" "MPF" 4 "D" 539 "word" 107 1 506 "1" NA NA
"amuleterpe" 13056 "word" "amuleto" "erpe" 2.428 "asfalto" 2.425 7 10 "related" "LF_orthog" 1.95 3.9 "amulet" 2.328 "GC46" "MPF" 4 "D" 627 "nonword" 106 0 622 "1" NA NA
"amuletorio" 11056 "word" "amuleto" "orio" 2.428 "asfalto" 2.425 7 10 "related" "morphological" 1.95 3 "amulet" 4.19 "MB38" "MPF" 2 "D" 556 "word" 174 1 648 "1" -0.0253837972856772 0.13903004634516
"amuletorio" 11056 "word" "amuleto" "orio" 2.428 "asfalto" 2.425 7 10 "related" "morphological" 1.95 3 "amulet" 4.19 "IF14" "MPF" 2 "D" 571 "word" 30 1 784 "1" -0.0253837972856772 0.13903004634516
"amuletorio" 11056 "word" "amuleto" "orio" 2.428 "asfalto" 2.425 7 10 "related" "morphological" 1.95 3 "amulet" 4.19 "SDC32" "MPF" 2 "D" 544 "word" 36 1 457 "1" -0.0253837972856772 0.13903004634516
"amuletorio" 11056 "word" "amuleto" "orio" 2.428 "asfalto" 2.425 7 10 "related" "morphological" 1.95 3 "amulet" 4.19 "AF8" "MPF" 2 "D" 488 "word" 173 1 627 "1" -0.0253837972856772 0.13903004634516
"amuletorio" 11056 "word" "amuleto" "orio" 2.428 "asfalto" 2.425 7 10 "related" "morphological" 1.95 3 "amulet" 4.19 "MC26" "MPF" 2 "D" 571 "word" 163 1 627 "1" -0.0253837972856772 0.13903004634516
"amuletorio" 11056 "word" "amuleto" "orio" 2.428 "asfalto" 2.425 7 10 "related" "morphological" 1.95 3 "amulet" 4.19 "LC44" "MPF" 2 "D" 478 "word" 93 1 570 "1" -0.0253837972856772 0.13903004634516
"amuletorio" 11056 "word" "amuleto" "orio" 2.428 "asfalto" 2.425 7 10 "related" "morphological" 1.95 3 "amulet" 4.19 "DC2" "MPF" 2 "D" 677 "word" 24 1 598 "1" -0.0253837972856772 0.13903004634516
"amuletorio" 11056 "word" "amuleto" "orio" 2.428 "asfalto" 2.425 7 10 "related" "morphological" 1.95 3 "amulet" 4.19 "FLB20" "MPF" 2 "D" 508 "word" 173 1 600 "1" -0.0253837972856772 0.13903004634516
"amuletorio" 11056 "word" "amuleto" "orio" 2.428 "asfalto" 2.425 7 10 "related" "morphological" 1.95 3 "amulet" 4.19 "AR50" "MPF" 2 "D" 622 "word" 36 1 647 "1" -0.0253837972856772 0.13903004634516
"amuletosso" 12056 "word" "amuleto" "osso" 2.428 "asfalto" 2.425 7 10 "related" "HF_orthog" 1.95 3.9 "amulet" 5.264 "LM21" "MPF" 3 "D" 480 "word" 36 1 489 "1" NA NA
"amuletosso" 12056 "word" "amuleto" "osso" 2.428 "asfalto" 2.425 7 10 "related" "HF_orthog" 1.95 3.9 "amulet" 5.264 "MP15" "MPF" 3 "D" 848 "word" 173 1 655 "1" NA NA
"amuletosso" 12056 "word" "amuleto" "osso" 2.428 "asfalto" 2.425 7 10 "related" "HF_orthog" 1.95 3.9 "amulet" 5.264 "MC3" "MPF" 3 "D" 721 "word" 36 1 672 "1" NA NA
"amuletosso" 12056 "word" "amuleto" "osso" 2.428 "asfalto" 2.425 7 10 "related" "HF_orthog" 1.95 3.9 "amulet" 5.264 "EV51" "MPF" 3 "D" 689 "word" 36 1 752 "1" NA NA
"amuletosso" 12056 "word" "amuleto" "osso" 2.428 "asfalto" 2.425 7 10 "related" "HF_orthog" 1.95 3.9 "amulet" 5.264 "CS33" "MPF" 3 "D" 539 "word" 121 1 611 "1" NA NA
"amuletosso" 12056 "word" "amuleto" "osso" 2.428 "asfalto" 2.425 7 10 "related" "HF_orthog" 1.95 3.9 "amulet" 5.264 "FC39" "MPF" 3 "S" 666 "nonword" 157 0 739 "1" NA NA
"amuletosso" 12056 "word" "amuleto" "osso" 2.428 "asfalto" 2.425 7 10 "related" "HF_orthog" 1.95 3.9 "amulet" 5.264 "AB9" "MPF" 3 "D" 774 "word" 36 1 810 "1" NA NA
"amuletosso" 12056 "word" "amuleto" "osso" 2.428 "asfalto" 2.425 7 10 "related" "HF_orthog" 1.95 3.9 "amulet" 5.264 "GG27" "MPF" 3 "D" 609 "word" 150 1 711 "1" NA NA
"amuletosso" 12056 "word" "amuleto" "osso" 2.428 "asfalto" 2.425 7 10 "related" "HF_orthog" 1.95 3.9 "amulet" 5.264 "AV45" "MPF" 3 "D" 666 "word" 121 1 787 "1" NA NA
"ancale" 21043 "word" "prua" "ale" 2.526 "anca" 2.525 4 6 "unrelated" "morphological" 1.05 1.7 "anc" 5.596 "MC16" "MPF" 4 "D" 928 "word" 126 1 932 "1" -0.0466504007938651 -0.347092892238076
"ancale" 21043 "word" "prua" "ale" 2.526 "anca" 2.525 4 6 "unrelated" "morphological" 1.05 1.7 "anc" 5.596 "ACV34" "MPF" 4 "S" 465 "nonword" 123 0 502 "1" -0.0466504007938651 -0.347092892238076
"ancale" 21043 "word" "prua" "ale" 2.526 "anca" 2.525 4 6 "unrelated" "morphological" 1.05 1.7 "anc" 5.596 "ADB4" "MPF" 4 "D" 1006 "word" 112 1 745 "1" -0.0466504007938651 -0.347092892238076
"ancale" 21043 "word" "prua" "ale" 2.526 "anca" 2.525 4 6 "unrelated" "morphological" 1.05 1.7 "anc" 5.596 "FC52" "MPF" 4 "D" 590 "nonword" 123 0 539 "1" -0.0466504007938651 -0.347092892238076
"ancale" 21043 "word" "prua" "ale" 2.526 "anca" 2.525 4 6 "unrelated" "morphological" 1.05 1.7 "anc" 5.596 "VB10" "MPF" 4 "D" 767 "word" 112 1 492 "1" -0.0466504007938651 -0.347092892238076
"ancale" 21043 "word" "prua" "ale" 2.526 "anca" 2.525 4 6 "unrelated" "morphological" 1.05 1.7 "anc" 5.596 "ADC28" "MPF" 4 "D" 712 "word" 126 1 494 "1" -0.0466504007938651 -0.347092892238076
"ancale" 21043 "word" "prua" "ale" 2.526 "anca" 2.525 4 6 "unrelated" "morphological" 1.05 1.7 "anc" 5.596 "LJ22" "MPF" 4 "D" 521 "nonword" 112 0 532 "1" -0.0466504007938651 -0.347092892238076
"ancale" 21043 "word" "prua" "ale" 2.526 "anca" 2.525 4 6 "unrelated" "morphological" 1.05 1.7 "anc" 5.596 "GP40" "MPF" 4 "D" 667 "word" 38 1 752 "1" -0.0466504007938651 -0.347092892238076
"ancale" 21043 "word" "prua" "ale" 2.526 "anca" 2.525 4 6 "unrelated" "morphological" 1.05 1.7 "anc" 5.596 "GC46" "MPF" 4 "D" 718 "word" 66 1 797 "1" -0.0466504007938651 -0.347092892238076
"ancoave" 23043 "word" "prua" "oave" 2.526 "anca" 2.525 4 7 "unrelated" "LF_orthog" 1.05 2.65 "anc" 1.991 "SP12" "MPF" 6 "S" 701 "word" 68 1 540 "1" NA NA
"ancoave" 23043 "word" "prua" "oave" 2.526 "anca" 2.525 4 7 "unrelated" "LF_orthog" 1.05 2.65 "anc" 1.991 "RE24" "MPF" 6 "S" 639 "nonword" 43 0 527 "1" NA NA
"ancoave" 23043 "word" "prua" "oave" 2.526 "anca" 2.525 4 7 "unrelated" "LF_orthog" 1.05 2.65 "anc" 1.991 "ZF42" "MPF" 6 "D" 790 "word" 39 1 733 "1" NA NA
"ancoave" 23043 "word" "prua" "oave" 2.526 "anca" 2.525 4 7 "unrelated" "LF_orthog" 1.05 2.65 "anc" 1.991 "GF54" "MPF" 6 "D" 537 "word" 86 1 646 "1" NA NA
"ancoave" 23043 "word" "prua" "oave" 2.526 "anca" 2.525 4 7 "unrelated" "LF_orthog" 1.05 2.65 "anc" 1.991 "MV48" "MPF" 6 "D" 747 "word" 39 1 616 "1" NA NA
"ancoave" 23043 "word" "prua" "oave" 2.526 "anca" 2.525 4 7 "unrelated" "LF_orthog" 1.05 2.65 "anc" 1.991 "CC6" "MPF" 6 "D" 689 "nonword" 140 0 759 "1" NA NA
"ancoave" 23043 "word" "prua" "oave" 2.526 "anca" 2.525 4 7 "unrelated" "LF_orthog" 1.05 2.65 "anc" 1.991 "GDL30" "MPF" 6 "D" 643 "nonword" 84 0 694 "1" NA NA
"ancoave" 23043 "word" "prua" "oave" 2.526 "anca" 2.525 4 7 "unrelated" "LF_orthog" 1.05 2.65 "anc" 1.991 "GS36" "MPF" 6 "D" 746 "word" 116 1 583 "1" NA NA
"ancoave" 23043 "word" "prua" "oave" 2.526 "anca" 2.525 4 7 "unrelated" "LF_orthog" 1.05 2.65 "anc" 1.991 "AA18" "MPF" 6 "D" 568 "word" 38 1 535 "1" NA NA
"ancome" 22043 "word" "prua" "ome" 2.526 "anca" 2.525 4 6 "unrelated" "HF_orthog" 1.05 1.65 "anc" 5.721 "SS41" "MPF" 5 "D" 834 "word" 39 1 626 "1" NA NA
"ancome" 22043 "word" "prua" "ome" 2.526 "anca" 2.525 4 6 "unrelated" "HF_orthog" 1.05 1.65 "anc" 5.721 "SE23" "MPF" 5 "D" 1024 "word" 24 1 856 "1" NA NA
"ancome" 22043 "word" "prua" "ome" 2.526 "anca" 2.525 4 6 "unrelated" "HF_orthog" 1.05 1.65 "anc" 5.721 "AC29" "MPF" 5 "D" 789 "word" 153 1 621 "1" NA NA
"ancome" 22043 "word" "prua" "ome" 2.526 "anca" 2.525 4 6 "unrelated" "HF_orthog" 1.05 1.65 "anc" 5.721 "RS56" "MPF" 5 "D" 470 "nonword" 78 0 469 "0" NA NA
"ancome" 22043 "word" "prua" "ome" 2.526 "anca" 2.525 4 6 "unrelated" "HF_orthog" 1.05 1.65 "anc" 5.721 "MT11" "MPF" 5 "S" 537 "word" 112 1 556 "1" NA NA
"ancome" 22043 "word" "prua" "ome" 2.526 "anca" 2.525 4 6 "unrelated" "HF_orthog" 1.05 1.65 "anc" 5.721 "AB53" "MPF" 5 "D" 547 "nonword" 100 0 562 "1" NA NA
"ancome" 22043 "word" "prua" "ome" 2.526 "anca" 2.525 4 6 "unrelated" "HF_orthog" 1.05 1.65 "anc" 5.721 "GL47" "MPF" 5 "S" 0 "NoResponse" 146 0 0 "0" NA NA
"ancome" 22043 "word" "prua" "ome" 2.526 "anca" 2.525 4 6 "unrelated" "HF_orthog" 1.05 1.65 "anc" 5.721 "MN5" "MPF" 5 "S" 667 "word" 43 1 505 "1" NA NA
"ancome" 22043 "word" "prua" "ome" 2.526 "anca" 2.525 4 6 "unrelated" "HF_orthog" 1.05 1.65 "anc" 5.721 "SP17" "MPF" 5 "D" 696 "word" 24 1 660 "1" NA NA
"ancome" 22043 "word" "prua" "ome" 2.526 "anca" 2.525 4 6 "unrelated" "HF_orthog" 1.05 1.65 "anc" 5.721 "SB35" "MPF" 5 "D" 592 "nonword" 123 0 1320 "1" NA NA
"anidalico" 31150 "nonword" "arcolto" "ico" NA NA NA 7 9 "unrelated" "morphological" 1.85 2.9 "anidal" 5.451 "EM13" "MPF" 1 "D" 999 "nonword" 134 1 755 "1" NA NA
"anidalico" 31150 "nonword" "arcolto" "ico" NA NA NA 7 9 "unrelated" "morphological" 1.85 2.9 "anidal" 5.451 "ADB4" "MPF" 4 "D" 1188 "nonword" 100 1 1202 "1" NA NA
"anidalico" 31150 "nonword" "arcolto" "ico" NA NA NA 7 9 "unrelated" "morphological" 1.85 2.9 "anidal" 5.451 "VA49" "MPF" 1 "D" 661 "nonword" 74 1 667 "1" NA NA
"anidalico" 31150 "nonword" "arcolto" "ico" NA NA NA 7 9 "unrelated" "morphological" 1.85 2.9 "anidal" 5.451 "GC46" "MPF" 4 "D" 696 "nonword" 33 1 560 "1" NA NA
"anidalico" 31150 "nonword" "arcolto" "ico" NA NA NA 7 9 "unrelated" "morphological" 1.85 2.9 "anidal" 5.451 "GG27" "MPF" 3 "D" 634 "nonword" 66 1 635 "1" NA NA
"anidalico" 31150 "nonword" "arcolto" "ico" NA NA NA 7 9 "unrelated" "morphological" 1.85 2.9 "anidal" 5.451 "MV48" "MPF" 6 "D" 594 "nonword" 128 1 511 "1" NA NA
"anidalico" 31150 "nonword" "arcolto" "ico" NA NA NA 7 9 "unrelated" "morphological" 1.85 2.9 "anidal" 5.451 "MVT19" "MPF" 1 "D" 914 "nonword" 74 1 929 "1" NA NA
"anidalico" 31150 "nonword" "arcolto" "ico" NA NA NA 7 9 "unrelated" "morphological" 1.85 2.9 "anidal" 5.451 "EP37" "MPF" 1 "D" 872 "nonword" 100 1 0 "0" NA NA
"anidalico" 31150 "nonword" "arcolto" "ico" NA NA NA 7 9 "unrelated" "morphological" 1.85 2.9 "anidal" 5.451 "CS33" "MPF" 3 "D" 728 "nonword" 41 1 659 "1" NA NA
"anidalico" 31150 "nonword" "arcolto" "ico" NA NA NA 7 9 "unrelated" "morphological" 1.85 2.9 "anidal" 5.451 "DM7" "MPF" 1 "D" 910 "nonword" 93 1 652 "1" NA NA
"anidalico" 31150 "nonword" "arcolto" "ico" NA NA NA 7 9 "unrelated" "morphological" 1.85 2.9 "anidal" 5.451 "MC26" "MPF" 2 "D" 661 "nonword" 114 1 552 "1" NA NA
"anidalico" 31150 "nonword" "arcolto" "ico" NA NA NA 7 9 "unrelated" "morphological" 1.85 2.9 "anidal" 5.451 "RS56" "MPF" 5 "D" 637 "nonword" 49 1 810 "1" NA NA
"anidalico" 31150 "nonword" "arcolto" "ico" NA NA NA 7 9 "unrelated" "morphological" 1.85 2.9 "anidal" 5.451 "ZF42" "MPF" 6 "D" 614 "nonword" 128 1 605 "1" NA NA
"anidalico" 31150 "nonword" "arcolto" "ico" NA NA NA 7 9 "unrelated" "morphological" 1.85 2.9 "anidal" 5.451 "CF1" "MPF" 1 "D" 664 "nonword" 128 1 453 "1" NA NA
"anidalico" 31150 "nonword" "arcolto" "ico" NA NA NA 7 9 "unrelated" "morphological" 1.85 2.9 "anidal" 5.451 "AF8" "MPF" 2 "D" 554 "nonword" 128 1 415 "1" NA NA
"anidalico" 31150 "nonword" "arcolto" "ico" NA NA NA 7 9 "unrelated" "morphological" 1.85 2.9 "anidal" 5.451 "MC16" "MPF" 4 "D" 1301 "nonword" 134 1 650 "1" NA NA
"anidalico" 31150 "nonword" "arcolto" "ico" NA NA NA 7 9 "unrelated" "morphological" 1.85 2.9 "anidal" 5.451 "MB38" "MPF" 2 "D" 1204 "nonword" 155 1 777 "1" NA NA
"anidalico" 31150 "nonword" "arcolto" "ico" NA NA NA 7 9 "unrelated" "morphological" 1.85 2.9 "anidal" 5.451 "DS31" "MPF" 1 "D" 557 "nonword" 74 1 998 "1" NA NA
"anidalico" 31150 "nonword" "arcolto" "ico" NA NA NA 7 9 "unrelated" "morphological" 1.85 2.9 "anidal" 5.451 "RE24" "MPF" 6 "S" 783 "nonword" 134 1 634 "1" NA NA
"anidalico" 31150 "nonword" "arcolto" "ico" NA NA NA 7 9 "unrelated" "morphological" 1.85 2.9 "anidal" 5.451 "EV51" "MPF" 3 "D" 1086 "nonword" 74 1 892 "1" NA NA
"anidalico" 31150 "nonword" "arcolto" "ico" NA NA NA 7 9 "unrelated" "morphological" 1.85 2.9 "anidal" 5.451 "AB53" "MPF" 5 "D" 0 "NoResponse" 113 0 511 "1" NA NA
"anidalico" 31150 "nonword" "arcolto" "ico" NA NA NA 7 9 "unrelated" "morphological" 1.85 2.9 "anidal" 5.451 "AA18" "MPF" 6 "D" 645 "nonword" 80 1 613 "1" NA NA
"anidalico" 31150 "nonword" "arcolto" "ico" NA NA NA 7 9 "unrelated" "morphological" 1.85 2.9 "anidal" 5.451 "SB35" "MPF" 5 "D" 1106 "nonword" 74 1 1234 "1" NA NA
"anidalico" 31150 "nonword" "arcolto" "ico" NA NA NA 7 9 "unrelated" "morphological" 1.85 2.9 "anidal" 5.451 "SDC32" "MPF" 2 "D" 870 "nonword" 74 1 504 "0" NA NA
"anidalico" 31150 "nonword" "arcolto" "ico" NA NA NA 7 9 "unrelated" "morphological" 1.85 2.9 "anidal" 5.451 "GDL30" "MPF" 6 "D" 627 "nonword" 19 1 557 "1" NA NA
"anidalico" 31150 "nonword" "arcolto" "ico" NA NA NA 7 9 "unrelated" "morphological" 1.85 2.9 "anidal" 5.451 "AC29" "MPF" 5 "D" 648 "nonword" 29 1 494 "1" NA NA
"anidalico" 31150 "nonword" "arcolto" "ico" NA NA NA 7 9 "unrelated" "morphological" 1.85 2.9 "anidal" 5.451 "GS36" "MPF" 6 "D" 691 "nonword" 106 1 636 "1" NA NA
"anidalico" 31150 "nonword" "arcolto" "ico" NA NA NA 7 9 "unrelated" "morphological" 1.85 2.9 "anidal" 5.451 "GF54" "MPF" 6 "D" 503 "nonword" 102 1 501 "1" NA NA
"anidalico" 31150 "nonword" "arcolto" "ico" NA NA NA 7 9 "unrelated" "morphological" 1.85 2.9 "anidal" 5.451 "MC3" "MPF" 3 "D" 701 "nonword" 74 1 892 "1" NA NA
"anidalico" 31150 "nonword" "arcolto" "ico" NA NA NA 7 9 "unrelated" "morphological" 1.85 2.9 "anidal" 5.451 "AC43" "MPF" 1 "D" 673 "nonword" 111 1 659 "1" NA NA
"anidalico" 31150 "nonword" "arcolto" "ico" NA NA NA 7 9 "unrelated" "morphological" 1.85 2.9 "anidal" 5.451 "VB10" "MPF" 4 "D" 588 "nonword" 100 1 553 "0" NA NA
"anidalico" 31150 "nonword" "arcolto" "ico" NA NA NA 7 9 "unrelated" "morphological" 1.85 2.9 "anidal" 5.451 "LJ22" "MPF" 4 "D" 680 "nonword" 100 1 605 "1" NA NA
"anidalico" 31150 "nonword" "arcolto" "ico" NA NA NA 7 9 "unrelated" "morphological" 1.85 2.9 "anidal" 5.451 "GP40" "MPF" 4 "D" 747 "nonword" 80 1 573 "1" NA NA
"anidalico" 31150 "nonword" "arcolto" "ico" NA NA NA 7 9 "unrelated" "morphological" 1.85 2.9 "anidal" 5.451 "AR50" "MPF" 2 "D" 830 "nonword" 74 1 698 "1" NA NA
"anidalico" 31150 "nonword" "arcolto" "ico" NA NA NA 7 9 "unrelated" "morphological" 1.85 2.9 "anidal" 5.451 "AV45" "MPF" 3 "D" 839 "nonword" 20 1 693 "1" NA NA
"anidalico" 31150 "nonword" "arcolto" "ico" NA NA NA 7 9 "unrelated" "morphological" 1.85 2.9 "anidal" 5.451 "AB9" "MPF" 3 "D" 853 "nonword" 74 1 742 "1" NA NA
"anidalico" 31150 "nonword" "arcolto" "ico" NA NA NA 7 9 "unrelated" "morphological" 1.85 2.9 "anidal" 5.451 "GL47" "MPF" 5 "S" 0 "NoResponse" 107 0 0 "0" NA NA
"anidalico" 31150 "nonword" "arcolto" "ico" NA NA NA 7 9 "unrelated" "morphological" 1.85 2.9 "anidal" 5.451 "AG25" "MPF" 1 "D" 789 "nonword" 44 1 538 "1" NA NA
"anidalico" 31150 "nonword" "arcolto" "ico" NA NA NA 7 9 "unrelated" "morphological" 1.85 2.9 "anidal" 5.451 "FC52" "MPF" 4 "D" 691 "nonword" 74 1 491 "0" NA NA
"anidalico" 31150 "nonword" "arcolto" "ico" NA NA NA 7 9 "unrelated" "morphological" 1.85 2.9 "anidal" 5.451 "SP12" "MPF" 6 "S" 601 "nonword" 54 1 489 "1" NA NA
"anidalico" 31150 "nonword" "arcolto" "ico" NA NA NA 7 9 "unrelated" "morphological" 1.85 2.9 "anidal" 5.451 "MP15" "MPF" 3 "D" 753 "nonword" 128 1 560 "1" NA NA
"anidalico" 31150 "nonword" "arcolto" "ico" NA NA NA 7 9 "unrelated" "morphological" 1.85 2.9 "anidal" 5.451 "LM21" "MPF" 3 "D" 833 "nonword" 74 1 864 "1" NA NA
"anidalico" 31150 "nonword" "arcolto" "ico" NA NA NA 7 9 "unrelated" "morphological" 1.85 2.9 "anidal" 5.451 "ADC28" "MPF" 4 "D" 643 "nonword" 90 1 698 "1" NA NA
"anidalico" 31150 "nonword" "arcolto" "ico" NA NA NA 7 9 "unrelated" "morphological" 1.85 2.9 "anidal" 5.451 "MN5" "MPF" 5 "S" 877 "nonword" 134 1 660 "1" NA NA
"anidalico" 31150 "nonword" "arcolto" "ico" NA NA NA 7 9 "unrelated" "morphological" 1.85 2.9 "anidal" 5.451 "ACV34" "MPF" 4 "S" 604 "nonword" 74 1 449 "0" NA NA
"anidalico" 31150 "nonword" "arcolto" "ico" NA NA NA 7 9 "unrelated" "morphological" 1.85 2.9 "anidal" 5.451 "FLB20" "MPF" 2 "D" 965 "nonword" 128 1 525 "1" NA NA
"anidalico" 31150 "nonword" "arcolto" "ico" NA NA NA 7 9 "unrelated" "morphological" 1.85 2.9 "anidal" 5.451 "CC6" "MPF" 6 "D" 1329 "nonword" 93 1 761 "1" NA NA
"anidalico" 31150 "nonword" "arcolto" "ico" NA NA NA 7 9 "unrelated" "morphological" 1.85 2.9 "anidal" 5.451 "SS41" "MPF" 5 "D" 964 "nonword" 128 1 504 "1" NA NA
"anidalico" 31150 "nonword" "arcolto" "ico" NA NA NA 7 9 "unrelated" "morphological" 1.85 2.9 "anidal" 5.451 "FC39" "MPF" 3 "S" 871 "nonword" 54 1 747 "1" NA NA
"anidalico" 31150 "nonword" "arcolto" "ico" NA NA NA 7 9 "unrelated" "morphological" 1.85 2.9 "anidal" 5.451 "SE23" "MPF" 5 "D" 0 "NoResponse" 41 0 0 "0" NA NA
"anidalico" 31150 "nonword" "arcolto" "ico" NA NA NA 7 9 "unrelated" "morphological" 1.85 2.9 "anidal" 5.451 "FD55" "MPF" 1 "D" 706 "nonword" 65 1 458 "1" NA NA
"anidalico" 31150 "nonword" "arcolto" "ico" NA NA NA 7 9 "unrelated" "morphological" 1.85 2.9 "anidal" 5.451 "SP17" "MPF" 5 "D" 898 "nonword" 41 1 691 "1" NA NA
"anidalico" 31150 "nonword" "arcolto" "ico" NA NA NA 7 9 "unrelated" "morphological" 1.85 2.9 "anidal" 5.451 "DC2" "MPF" 2 "D" 742 "nonword" 100 1 531 "1" NA NA
"anidalico" 31150 "nonword" "arcolto" "ico" NA NA NA 7 9 "unrelated" "morphological" 1.85 2.9 "anidal" 5.451 "LC44" "MPF" 2 "D" 742 "nonword" 135 1 715 "1" NA NA
"anidalico" 31150 "nonword" "arcolto" "ico" NA NA NA 7 9 "unrelated" "morphological" 1.85 2.9 "anidal" 5.451 "IF14" "MPF" 2 "D" 621 "nonword" 106 1 722 "1" NA NA
"anidalico" 31150 "nonword" "arcolto" "ico" NA NA NA 7 9 "unrelated" "morphological" 1.85 2.9 "anidal" 5.451 "MT11" "MPF" 5 "S" 750 "nonword" 100 1 859 "1" NA NA
"asfalterpe" 23056 "word" "amuleto" "erpe" 2.428 "asfalto" 2.425 7 10 "unrelated" "LF_orthog" 1.95 3.6 "asfalt" 2.328 "AC43" "MPF" 1 "D" 589 "word" 117 1 483 "1" NA NA
"asfalterpe" 23056 "word" "amuleto" "erpe" 2.428 "asfalto" 2.425 7 10 "unrelated" "LF_orthog" 1.95 3.6 "asfalt" 2.328 "DM7" "MPF" 1 "D" 939 "word" 109 1 847 "1" NA NA
"asfalterpe" 23056 "word" "amuleto" "erpe" 2.428 "asfalto" 2.425 7 10 "unrelated" "LF_orthog" 1.95 3.6 "asfalt" 2.328 "EM13" "MPF" 1 "D" 1054 "word" 88 1 1039 "1" NA NA
"asfalterpe" 23056 "word" "amuleto" "erpe" 2.428 "asfalto" 2.425 7 10 "unrelated" "LF_orthog" 1.95 3.6 "asfalt" 2.328 "DS31" "MPF" 1 "D" 525 "word" 36 1 491 "1" NA NA
"asfalterpe" 23056 "word" "amuleto" "erpe" 2.428 "asfalto" 2.425 7 10 "unrelated" "LF_orthog" 1.95 3.6 "asfalt" 2.328 "FD55" "MPF" 1 "D" 676 "word" 165 1 478 "1" NA NA
"asfalterpe" 23056 "word" "amuleto" "erpe" 2.428 "asfalto" 2.425 7 10 "unrelated" "LF_orthog" 1.95 3.6 "asfalt" 2.328 "VA49" "MPF" 1 "D" 636 "word" 36 1 530 "1" NA NA
"asfalterpe" 23056 "word" "amuleto" "erpe" 2.428 "asfalto" 2.425 7 10 "unrelated" "LF_orthog" 1.95 3.6 "asfalt" 2.328 "EP37" "MPF" 1 "D" 888 "word" 24 1 1381 "1" NA NA
"asfalterpe" 23056 "word" "amuleto" "erpe" 2.428 "asfalto" 2.425 7 10 "unrelated" "LF_orthog" 1.95 3.6 "asfalt" 2.328 "MVT19" "MPF" 1 "D" 765 "word" 36 1 727 "1" NA NA
"asfalterpe" 23056 "word" "amuleto" "erpe" 2.428 "asfalto" 2.425 7 10 "unrelated" "LF_orthog" 1.95 3.6 "asfalt" 2.328 "CF1" "MPF" 1 "D" 696 "word" 173 1 638 "1" NA NA
"asfalterpe" 23056 "word" "amuleto" "erpe" 2.428 "asfalto" 2.425 7 10 "unrelated" "LF_orthog" 1.95 3.6 "asfalt" 2.328 "AG25" "MPF" 1 "D" 726 "word" 154 1 756 "1" NA NA
"asfaltorio" 21056 "word" "amuleto" "orio" 2.428 "asfalto" 2.425 7 10 "unrelated" "morphological" 1.95 3.3 "asfalt" 4.19 "RS56" "MPF" 5 "D" 695 "word" 156 1 539 "1" 0.0101546933211258 0.361361599061873
"asfaltorio" 21056 "word" "amuleto" "orio" 2.428 "asfalto" 2.425 7 10 "unrelated" "morphological" 1.95 3.3 "asfalt" 4.19 "SP17" "MPF" 5 "D" 675 "word" 121 1 797 "1" 0.0101546933211258 0.361361599061873
"asfaltorio" 21056 "word" "amuleto" "orio" 2.428 "asfalto" 2.425 7 10 "unrelated" "morphological" 1.95 3.3 "asfalt" 4.19 "SS41" "MPF" 5 "D" 762 "word" 173 1 458 "1" 0.0101546933211258 0.361361599061873
"asfaltorio" 21056 "word" "amuleto" "orio" 2.428 "asfalto" 2.425 7 10 "unrelated" "morphological" 1.95 3.3 "asfalt" 4.19 "SB35" "MPF" 5 "D" 671 "word" 36 1 794 "1" 0.0101546933211258 0.361361599061873
"asfaltorio" 21056 "word" "amuleto" "orio" 2.428 "asfalto" 2.425 7 10 "unrelated" "morphological" 1.95 3.3 "asfalt" 4.19 "GL47" "MPF" 5 "S" 528 "word" 63 1 0 "0" 0.0101546933211258 0.361361599061873
"asfaltorio" 21056 "word" "amuleto" "orio" 2.428 "asfalto" 2.425 7 10 "unrelated" "morphological" 1.95 3.3 "asfalt" 4.19 "MT11" "MPF" 5 "S" 681 "word" 24 1 873 "1" 0.0101546933211258 0.361361599061873
"asfaltorio" 21056 "word" "amuleto" "orio" 2.428 "asfalto" 2.425 7 10 "unrelated" "morphological" 1.95 3.3 "asfalt" 4.19 "MN5" "MPF" 5 "S" 799 "word" 88 1 1043 "1" 0.0101546933211258 0.361361599061873
"asfaltorio" 21056 "word" "amuleto" "orio" 2.428 "asfalto" 2.425 7 10 "unrelated" "morphological" 1.95 3.3 "asfalt" 4.19 "AC29" "MPF" 5 "D" 1162 "word" 133 1 671 "1" 0.0101546933211258 0.361361599061873
"asfaltorio" 21056 "word" "amuleto" "orio" 2.428 "asfalto" 2.425 7 10 "unrelated" "morphological" 1.95 3.3 "asfalt" 4.19 "SE23" "MPF" 5 "D" 926 "word" 121 1 1133 "1" 0.0101546933211258 0.361361599061873
"asfaltorio" 21056 "word" "amuleto" "orio" 2.428 "asfalto" 2.425 7 10 "unrelated" "morphological" 1.95 3.3 "asfalt" 4.19 "AB53" "MPF" 5 "D" 637 "word" 152 1 472 "1" 0.0101546933211258 0.361361599061873
"asfaltosso" 22056 "word" "amuleto" "osso" 2.428 "asfalto" 2.425 7 10 "unrelated" "HF_orthog" 1.95 3.75 "asfalt" 5.264 "SP12" "MPF" 6 "S" 600 "word" 157 1 628 "1" NA NA
"asfaltosso" 22056 "word" "amuleto" "osso" 2.428 "asfalto" 2.425 7 10 "unrelated" "HF_orthog" 1.95 3.75 "asfalt" 5.264 "MV48" "MPF" 6 "D" 674 "word" 173 1 702 "1" NA NA
"asfaltosso" 22056 "word" "amuleto" "osso" 2.428 "asfalto" 2.425 7 10 "unrelated" "HF_orthog" 1.95 3.75 "asfalt" 5.264 "CC6" "MPF" 6 "D" 619 "nonword" 109 0 816 "1" NA NA
"asfaltosso" 22056 "word" "amuleto" "osso" 2.428 "asfalto" 2.425 7 10 "unrelated" "HF_orthog" 1.95 3.75 "asfalt" 5.264 "RE24" "MPF" 6 "S" 718 "word" 88 1 838 "1" NA NA
"asfaltosso" 22056 "word" "amuleto" "osso" 2.428 "asfalto" 2.425 7 10 "unrelated" "HF_orthog" 1.95 3.75 "asfalt" 5.264 "GS36" "MPF" 6 "D" 798 "word" 30 1 669 "1" NA NA
"asfaltosso" 22056 "word" "amuleto" "osso" 2.428 "asfalto" 2.425 7 10 "unrelated" "HF_orthog" 1.95 3.75 "asfalt" 5.264 "GDL30" "MPF" 6 "D" 677 "word" 115 1 629 "1" NA NA
"asfaltosso" 22056 "word" "amuleto" "osso" 2.428 "asfalto" 2.425 7 10 "unrelated" "HF_orthog" 1.95 3.75 "asfalt" 5.264 "ZF42" "MPF" 6 "D" 598 "word" 173 1 720 "1" NA NA
"asfaltosso" 22056 "word" "amuleto" "osso" 2.428 "asfalto" 2.425 7 10 "unrelated" "HF_orthog" 1.95 3.75 "asfalt" 5.264 "AA18" "MPF" 6 "D" 785 "word" 78 1 725 "1" NA NA
"asfaltosso" 22056 "word" "amuleto" "osso" 2.428 "asfalto" 2.425 7 10 "unrelated" "HF_orthog" 1.95 3.75 "asfalt" 5.264 "GF54" "MPF" 6 "D" 504 "word" 144 1 523 "1" NA NA
"baccanente" 11048 "word" "baccano" "ente" 2.474 "vettura" 2.468 7 10 "related" "morphological" 1.75 2.95 "baccan" 5.879 "AA18" "MPF" 6 "D" 629 "word" 42 1 547 "1" -0.00480872692457867 -0.478425378201828
"baccanente" 11048 "word" "baccano" "ente" 2.474 "vettura" 2.468 7 10 "related" "morphological" 1.75 2.95 "baccan" 5.879 "GF54" "MPF" 6 "D" 865 "nonword" 87 0 537 "1" -0.00480872692457867 -0.478425378201828
"baccanente" 11048 "word" "baccano" "ente" 2.474 "vettura" 2.468 7 10 "related" "morphological" 1.75 2.95 "baccan" 5.879 "GS36" "MPF" 6 "D" 583 "word" 115 1 774 "1" -0.00480872692457867 -0.478425378201828
"baccanente" 11048 "word" "baccano" "ente" 2.474 "vettura" 2.468 7 10 "related" "morphological" 1.75 2.95 "baccan" 5.879 "ZF42" "MPF" 6 "D" 547 "word" 40 1 790 "1" -0.00480872692457867 -0.478425378201828
"baccanente" 11048 "word" "baccano" "ente" 2.474 "vettura" 2.468 7 10 "related" "morphological" 1.75 2.95 "baccan" 5.879 "RE24" "MPF" 6 "S" 1050 "word" 50 1 762 "1" -0.00480872692457867 -0.478425378201828
"baccanente" 11048 "word" "baccano" "ente" 2.474 "vettura" 2.468 7 10 "related" "morphological" 1.75 2.95 "baccan" 5.879 "MV48" "MPF" 6 "D" 689 "word" 40 1 747 "1" -0.00480872692457867 -0.478425378201828
"baccanente" 11048 "word" "baccano" "ente" 2.474 "vettura" 2.468 7 10 "related" "morphological" 1.75 2.95 "baccan" 5.879 "SP12" "MPF" 6 "S" 689 "word" 71 1 700 "1" -0.00480872692457867 -0.478425378201828
"baccanente" 11048 "word" "baccano" "ente" 2.474 "vettura" 2.468 7 10 "related" "morphological" 1.75 2.95 "baccan" 5.879 "GDL30" "MPF" 6 "D" 766 "word" 90 1 701 "1" -0.00480872692457867 -0.478425378201828
"baccanente" 11048 "word" "baccano" "ente" 2.474 "vettura" 2.468 7 10 "related" "morphological" 1.75 2.95 "baccan" 5.879 "CC6" "MPF" 6 "D" 631 "word" 144 1 643 "1" -0.00480872692457867 -0.478425378201828
"baccanerso" 12048 "word" "baccano" "erso" 2.474 "vettura" 2.468 7 10 "related" "HF_orthog" 1.75 3.85 "baccan" 4.832 "AC43" "MPF" 1 "D" 924 "word" 68 1 896 "1" NA NA
"baccanerso" 12048 "word" "baccano" "erso" 2.474 "vettura" 2.468 7 10 "related" "HF_orthog" 1.75 3.85 "baccan" 4.832 "DM7" "MPF" 1 "D" 972 "word" 144 1 1009 "1" NA NA
"baccanerso" 12048 "word" "baccano" "erso" 2.474 "vettura" 2.468 7 10 "related" "HF_orthog" 1.75 3.85 "baccan" 4.832 "DS31" "MPF" 1 "D" 733 "nonword" 118 0 548 "1" NA NA
"baccanerso" 12048 "word" "baccano" "erso" 2.474 "vettura" 2.468 7 10 "related" "HF_orthog" 1.75 3.85 "baccan" 4.832 "CF1" "MPF" 1 "D" 518 "word" 40 1 718 "1" NA NA
"baccanerso" 12048 "word" "baccano" "erso" 2.474 "vettura" 2.468 7 10 "related" "HF_orthog" 1.75 3.85 "baccan" 4.832 "EM13" "MPF" 1 "D" 732 "word" 50 1 960 "1" NA NA
"baccanerso" 12048 "word" "baccano" "erso" 2.474 "vettura" 2.468 7 10 "related" "HF_orthog" 1.75 3.85 "baccan" 4.832 "VA49" "MPF" 1 "D" 657 "word" 118 1 515 "1" NA NA
"baccanerso" 12048 "word" "baccano" "erso" 2.474 "vettura" 2.468 7 10 "related" "HF_orthog" 1.75 3.85 "baccan" 4.832 "MVT19" "MPF" 1 "D" 561 "nonword" 118 0 845 "1" NA NA
"baccanerso" 12048 "word" "baccano" "erso" 2.474 "vettura" 2.468 7 10 "related" "HF_orthog" 1.75 3.85 "baccan" 4.832 "EP37" "MPF" 1 "D" 660 "word" 106 1 720 "1" NA NA
"baccanerso" 12048 "word" "baccano" "erso" 2.474 "vettura" 2.468 7 10 "related" "HF_orthog" 1.75 3.85 "baccan" 4.832 "FD55" "MPF" 1 "D" 819 "word" 86 1 541 "1" NA NA
"baccanerso" 12048 "word" "baccano" "erso" 2.474 "vettura" 2.468 7 10 "related" "HF_orthog" 1.75 3.85 "baccan" 4.832 "AG25" "MPF" 1 "D" 1005 "word" 121 1 669 "1" NA NA
"baccanzana" 13048 "word" "baccano" "zana" 2.474 "vettura" 2.468 7 10 "related" "LF_orthog" 1.75 3.7 "baccan" 2.061 "MC26" "MPF" 2 "D" 688 "word" 140 1 585 "1" NA NA
"baccanzana" 13048 "word" "baccano" "zana" 2.474 "vettura" 2.468 7 10 "related" "LF_orthog" 1.75 3.7 "baccan" 2.061 "LC44" "MPF" 2 "D" 543 "word" 167 1 625 "1" NA NA
"baccanzana" 13048 "word" "baccano" "zana" 2.474 "vettura" 2.468 7 10 "related" "LF_orthog" 1.75 3.7 "baccan" 2.061 "AR50" "MPF" 2 "D" 714 "word" 118 1 730 "1" NA NA
"baccanzana" 13048 "word" "baccano" "zana" 2.474 "vettura" 2.468 7 10 "related" "LF_orthog" 1.75 3.7 "baccan" 2.061 "FLB20" "MPF" 2 "D" 667 "word" 40 1 1162 "1" NA NA
"baccanzana" 13048 "word" "baccano" "zana" 2.474 "vettura" 2.468 7 10 "related" "LF_orthog" 1.75 3.7 "baccan" 2.061 "AF8" "MPF" 2 "D" 525 "word" 40 1 566 "1" NA NA
"baccanzana" 13048 "word" "baccano" "zana" 2.474 "vettura" 2.468 7 10 "related" "LF_orthog" 1.75 3.7 "baccan" 2.061 "DC2" "MPF" 2 "D" 682 "word" 106 1 623 "1" NA NA
"baccanzana" 13048 "word" "baccano" "zana" 2.474 "vettura" 2.468 7 10 "related" "LF_orthog" 1.75 3.7 "baccan" 2.061 "SDC32" "MPF" 2 "D" 520 "nonword" 118 0 572 "1" NA NA
"baccanzana" 13048 "word" "baccano" "zana" 2.474 "vettura" 2.468 7 10 "related" "LF_orthog" 1.75 3.7 "baccan" 2.061 "IF14" "MPF" 2 "D" 522 "word" 115 1 736 "1" NA NA
"baccanzana" 13048 "word" "baccano" "zana" 2.474 "vettura" 2.468 7 10 "related" "LF_orthog" 1.75 3.7 "baccan" 2.061 "MB38" "MPF" 2 "D" 621 "word" 105 1 480 "1" NA NA
"baciaggio" 21008 "word" "piede" "aggio" 3.679 "bacio" 3.675 5 9 "unrelated" "morphological" 1 2.9 "baci" 4.902 "SB35" "MPF" 5 "D" 541 "word" 89 1 687 "1" -0.0191249539174042 -0.0857209477771058
"baciaggio" 21008 "word" "piede" "aggio" 3.679 "bacio" 3.675 5 9 "unrelated" "morphological" 1 2.9 "baci" 4.902 "MT11" "MPF" 5 "S" 502 "word" 79 1 640 "1" -0.0191249539174042 -0.0857209477771058
"baciaggio" 21008 "word" "piede" "aggio" 3.679 "bacio" 3.675 5 9 "unrelated" "morphological" 1 2.9 "baci" 4.902 "AC29" "MPF" 5 "D" 551 "word" 38 1 571 "1" -0.0191249539174042 -0.0857209477771058
"baciaggio" 21008 "word" "piede" "aggio" 3.679 "bacio" 3.675 5 9 "unrelated" "morphological" 1 2.9 "baci" 4.902 "SP17" "MPF" 5 "D" 641 "word" 85 1 897 "1" -0.0191249539174042 -0.0857209477771058
"baciaggio" 21008 "word" "piede" "aggio" 3.679 "bacio" 3.675 5 9 "unrelated" "morphological" 1 2.9 "baci" 4.902 "MN5" "MPF" 5 "S" 500 "word" 71 1 828 "1" -0.0191249539174042 -0.0857209477771058
"baciaggio" 21008 "word" "piede" "aggio" 3.679 "bacio" 3.675 5 9 "unrelated" "morphological" 1 2.9 "baci" 4.902 "GL47" "MPF" 5 "S" 456 "word" 71 1 0 "0" -0.0191249539174042 -0.0857209477771058
"baciaggio" 21008 "word" "piede" "aggio" 3.679 "bacio" 3.675 5 9 "unrelated" "morphological" 1 2.9 "baci" 4.902 "SS41" "MPF" 5 "D" 519 "word" 48 1 841 "1" -0.0191249539174042 -0.0857209477771058
"baciaggio" 21008 "word" "piede" "aggio" 3.679 "bacio" 3.675 5 9 "unrelated" "morphological" 1 2.9 "baci" 4.902 "AB53" "MPF" 5 "D" 571 "word" 125 1 616 "1" -0.0191249539174042 -0.0857209477771058
"baciaggio" 21008 "word" "piede" "aggio" 3.679 "bacio" 3.675 5 9 "unrelated" "morphological" 1 2.9 "baci" 4.902 "SE23" "MPF" 5 "D" 898 "word" 85 1 963 "1" -0.0191249539174042 -0.0857209477771058
"baciaggio" 21008 "word" "piede" "aggio" 3.679 "bacio" 3.675 5 9 "unrelated" "morphological" 1 2.9 "baci" 4.902 "RS56" "MPF" 5 "D" 627 "word" 136 1 471 "1" -0.0191249539174042 -0.0857209477771058
"baciemure" 23008 "word" "piede" "mure" 3.679 "bacio" 3.675 5 9 "unrelated" "LF_orthog" 1 3.45 "bacie" 2.064 "AG25" "MPF" 1 "D" 543 "word" 29 1 683 "1" NA NA
"baciemure" 23008 "word" "piede" "mure" 3.679 "bacio" 3.675 5 9 "unrelated" "LF_orthog" 1 3.45 "bacie" 2.064 "MVT19" "MPF" 1 "D" 728 "word" 89 1 690 "1" NA NA
"baciemure" 23008 "word" "piede" "mure" 3.679 "bacio" 3.675 5 9 "unrelated" "LF_orthog" 1 3.45 "bacie" 2.064 "EP37" "MPF" 1 "D" 722 "word" 79 1 800 "1" NA NA
"baciemure" 23008 "word" "piede" "mure" 3.679 "bacio" 3.675 5 9 "unrelated" "LF_orthog" 1 3.45 "bacie" 2.064 "VA49" "MPF" 1 "D" 488 "word" 89 1 598 "1" NA NA
"baciemure" 23008 "word" "piede" "mure" 3.679 "bacio" 3.675 5 9 "unrelated" "LF_orthog" 1 3.45 "bacie" 2.064 "DS31" "MPF" 1 "D" 583 "word" 89 1 663 "1" NA NA
"baciemure" 23008 "word" "piede" "mure" 3.679 "bacio" 3.675 5 9 "unrelated" "LF_orthog" 1 3.45 "bacie" 2.064 "CF1" "MPF" 1 "D" 532 "word" 48 1 694 "1" NA NA
"baciemure" 23008 "word" "piede" "mure" 3.679 "bacio" 3.675 5 9 "unrelated" "LF_orthog" 1 3.45 "bacie" 2.064 "AC43" "MPF" 1 "D" 557 "word" 33 1 713 "0" NA NA
"baciemure" 23008 "word" "piede" "mure" 3.679 "bacio" 3.675 5 9 "unrelated" "LF_orthog" 1 3.45 "bacie" 2.064 "FD55" "MPF" 1 "D" 604 "word" 143 1 567 "1" NA NA
"baciemure" 23008 "word" "piede" "mure" 3.679 "bacio" 3.675 5 9 "unrelated" "LF_orthog" 1 3.45 "bacie" 2.064 "EM13" "MPF" 1 "D" 604 "word" 71 1 1282 "1" NA NA
"baciemure" 23008 "word" "piede" "mure" 3.679 "bacio" 3.675 5 9 "unrelated" "LF_orthog" 1 3.45 "bacie" 2.064 "DM7" "MPF" 1 "D" 858 "word" 29 1 714 "1" NA NA
"baciutto" 22008 "word" "piede" "utto" 3.679 "bacio" 3.675 5 8 "unrelated" "HF_orthog" 1 2.2 "baci" 5.467 "AA18" "MPF" 6 "D" 590 "word" 59 1 502 "1" NA NA
"baciutto" 22008 "word" "piede" "utto" 3.679 "bacio" 3.675 5 8 "unrelated" "HF_orthog" 1 2.2 "baci" 5.467 "ZF42" "MPF" 6 "D" 746 "word" 48 1 1005 "1" NA NA
"baciutto" 22008 "word" "piede" "utto" 3.679 "bacio" 3.675 5 8 "unrelated" "HF_orthog" 1 2.2 "baci" 5.467 "GDL30" "MPF" 6 "D" 594 "word" 139 1 805 "1" NA NA
"baciutto" 22008 "word" "piede" "utto" 3.679 "bacio" 3.675 5 8 "unrelated" "HF_orthog" 1 2.2 "baci" 5.467 "SP12" "MPF" 6 "S" 558 "word" 56 1 565 "1" NA NA
"baciutto" 22008 "word" "piede" "utto" 3.679 "bacio" 3.675 5 8 "unrelated" "HF_orthog" 1 2.2 "baci" 5.467 "GF54" "MPF" 6 "D" 422 "word" 105 1 399 "1" NA NA
"baciutto" 22008 "word" "piede" "utto" 3.679 "bacio" 3.675 5 8 "unrelated" "HF_orthog" 1 2.2 "baci" 5.467 "GS36" "MPF" 6 "D" 526 "word" 155 1 545 "1" NA NA
"baciutto" 22008 "word" "piede" "utto" 3.679 "bacio" 3.675 5 8 "unrelated" "HF_orthog" 1 2.2 "baci" 5.467 "RE24" "MPF" 6 "S" 747 "word" 71 1 907 "1" NA NA
"baciutto" 22008 "word" "piede" "utto" 3.679 "bacio" 3.675 5 8 "unrelated" "HF_orthog" 1 2.2 "baci" 5.467 "CC6" "MPF" 6 "D" 586 "word" 29 1 722 "1" NA NA
"baciutto" 22008 "word" "piede" "utto" 3.679 "bacio" 3.675 5 8 "unrelated" "HF_orthog" 1 2.2 "baci" 5.467 "MV48" "MPF" 6 "D" 627 "word" 48 1 639 "1" NA NA
"badiesco" 31085 "nonword" "badio" "esco" NA NA NA 5 8 "related" "morphological" 1.3 2.8 "badi" 4.554 "GC46" "MPF" 4 "D" 573 "nonword" 162 1 497 "1" NA NA
"badiesco" 31085 "nonword" "badio" "esco" NA NA NA 5 8 "related" "morphological" 1.3 2.8 "badi" 4.554 "FC52" "MPF" 4 "D" 607 "nonword" 81 1 540 "1" NA NA
"badiesco" 31085 "nonword" "badio" "esco" NA NA NA 5 8 "related" "morphological" 1.3 2.8 "badi" 4.554 "ADC28" "MPF" 4 "D" 552 "nonword" 51 1 569 "1" NA NA
"badiesco" 31085 "nonword" "badio" "esco" NA NA NA 5 8 "related" "morphological" 1.3 2.8 "badi" 4.554 "AA18" "MPF" 6 "D" 727 "nonword" 56 1 899 "1" NA NA
"badiesco" 31085 "nonword" "badio" "esco" NA NA NA 5 8 "related" "morphological" 1.3 2.8 "badi" 4.554 "AG25" "MPF" 1 "D" 663 "nonword" 24 1 562 "1" NA NA
"badiesco" 31085 "nonword" "badio" "esco" NA NA NA 5 8 "related" "morphological" 1.3 2.8 "badi" 4.554 "ZF42" "MPF" 6 "D" 834 "nonword" 45 1 540 "1" NA NA
"badiesco" 31085 "nonword" "badio" "esco" NA NA NA 5 8 "related" "morphological" 1.3 2.8 "badi" 4.554 "MVT19" "MPF" 1 "D" 843 "nonword" 81 1 728 "1" NA NA
"badiesco" 31085 "nonword" "badio" "esco" NA NA NA 5 8 "related" "morphological" 1.3 2.8 "badi" 4.554 "AR50" "MPF" 2 "D" 601 "nonword" 81 1 621 "1" NA NA
"badiesco" 31085 "nonword" "badio" "esco" NA NA NA 5 8 "related" "morphological" 1.3 2.8 "badi" 4.554 "GG27" "MPF" 3 "D" 721 "nonword" 105 1 838 "1" NA NA
"badiesco" 31085 "nonword" "badio" "esco" NA NA NA 5 8 "related" "morphological" 1.3 2.8 "badi" 4.554 "MN5" "MPF" 5 "S" 1104 "nonword" 75 1 776 "1" NA NA
"badiesco" 31085 "nonword" "badio" "esco" NA NA NA 5 8 "related" "morphological" 1.3 2.8 "badi" 4.554 "MB38" "MPF" 2 "D" 536 "nonword" 19 1 569 "1" NA NA
"badiesco" 31085 "nonword" "badio" "esco" NA NA NA 5 8 "related" "morphological" 1.3 2.8 "badi" 4.554 "AB9" "MPF" 3 "D" 696 "nonword" 81 1 679 "1" NA NA
"badiesco" 31085 "nonword" "badio" "esco" NA NA NA 5 8 "related" "morphological" 1.3 2.8 "badi" 4.554 "SE23" "MPF" 5 "D" 794 "nonword" 79 1 1432 "1" NA NA
"badiesco" 31085 "nonword" "badio" "esco" NA NA NA 5 8 "related" "morphological" 1.3 2.8 "badi" 4.554 "CC6" "MPF" 6 "D" 677 "nonword" 27 1 506 "0" NA NA
"badiesco" 31085 "nonword" "badio" "esco" NA NA NA 5 8 "related" "morphological" 1.3 2.8 "badi" 4.554 "GL47" "MPF" 5 "S" 0 "NoResponse" 77 0 0 "0" NA NA
"badiesco" 31085 "nonword" "badio" "esco" NA NA NA 5 8 "related" "morphological" 1.3 2.8 "badi" 4.554 "MC3" "MPF" 3 "D" 614 "nonword" 81 1 724 "1" NA NA
"badiesco" 31085 "nonword" "badio" "esco" NA NA NA 5 8 "related" "morphological" 1.3 2.8 "badi" 4.554 "CF1" "MPF" 1 "D" 528 "nonword" 45 1 404 "1" NA NA
"badiesco" 31085 "nonword" "badio" "esco" NA NA NA 5 8 "related" "morphological" 1.3 2.8 "badi" 4.554 "GS36" "MPF" 6 "D" 583 "nonword" 161 1 603 "1" NA NA
"badiesco" 31085 "nonword" "badio" "esco" NA NA NA 5 8 "related" "morphological" 1.3 2.8 "badi" 4.554 "MC16" "MPF" 4 "D" 667 "nonword" 49 1 665 "1" NA NA
"badiesco" 31085 "nonword" "badio" "esco" NA NA NA 5 8 "related" "morphological" 1.3 2.8 "badi" 4.554 "SB35" "MPF" 5 "D" 731 "nonword" 81 1 767 "1" NA NA
"badiesco" 31085 "nonword" "badio" "esco" NA NA NA 5 8 "related" "morphological" 1.3 2.8 "badi" 4.554 "SDC32" "MPF" 2 "D" 495 "nonword" 81 1 1175 "1" NA NA
"badiesco" 31085 "nonword" "badio" "esco" NA NA NA 5 8 "related" "morphological" 1.3 2.8 "badi" 4.554 "DC2" "MPF" 2 "D" 673 "nonword" 86 1 583 "1" NA NA
"badiesco" 31085 "nonword" "badio" "esco" NA NA NA 5 8 "related" "morphological" 1.3 2.8 "badi" 4.554 "EP37" "MPF" 1 "D" 0 "NoResponse" 86 0 1489 "1" NA NA
"badiesco" 31085 "nonword" "badio" "esco" NA NA NA 5 8 "related" "morphological" 1.3 2.8 "badi" 4.554 "GP40" "MPF" 4 "D" 684 "nonword" 56 1 888 "1" NA NA
"badiesco" 31085 "nonword" "badio" "esco" NA NA NA 5 8 "related" "morphological" 1.3 2.8 "badi" 4.554 "FD55" "MPF" 1 "D" 567 "nonword" 142 1 627 "1" NA NA
"badiesco" 31085 "nonword" "badio" "esco" NA NA NA 5 8 "related" "morphological" 1.3 2.8 "badi" 4.554 "GF54" "MPF" 6 "D" 420 "nonword" 113 1 476 "1" NA NA
"badiesco" 31085 "nonword" "badio" "esco" NA NA NA 5 8 "related" "morphological" 1.3 2.8 "badi" 4.554 "SP17" "MPF" 5 "D" 740 "nonword" 79 1 571 "1" NA NA
"badiesco" 31085 "nonword" "badio" "esco" NA NA NA 5 8 "related" "morphological" 1.3 2.8 "badi" 4.554 "AC29" "MPF" 5 "D" 664 "nonword" 32 1 686 "1" NA NA
"badiesco" 31085 "nonword" "badio" "esco" NA NA NA 5 8 "related" "morphological" 1.3 2.8 "badi" 4.554 "EV51" "MPF" 3 "D" 961 "nonword" 81 1 1383 "1" NA NA
"badiesco" 31085 "nonword" "badio" "esco" NA NA NA 5 8 "related" "morphological" 1.3 2.8 "badi" 4.554 "AC43" "MPF" 1 "D" 693 "nonword" 39 1 694 "1" NA NA
"badiesco" 31085 "nonword" "badio" "esco" NA NA NA 5 8 "related" "morphological" 1.3 2.8 "badi" 4.554 "SP12" "MPF" 6 "S" 535 "nonword" 63 1 444 "1" NA NA
"badiesco" 31085 "nonword" "badio" "esco" NA NA NA 5 8 "related" "morphological" 1.3 2.8 "badi" 4.554 "VA49" "MPF" 1 "D" 468 "nonword" 81 1 506 "1" NA NA
"badiesco" 31085 "nonword" "badio" "esco" NA NA NA 5 8 "related" "morphological" 1.3 2.8 "badi" 4.554 "FC39" "MPF" 3 "S" 677 "nonword" 63 1 587 "1" NA NA
"badiesco" 31085 "nonword" "badio" "esco" NA NA NA 5 8 "related" "morphological" 1.3 2.8 "badi" 4.554 "MC26" "MPF" 2 "D" 585 "nonword" 99 1 497 "1" NA NA
"badiesco" 31085 "nonword" "badio" "esco" NA NA NA 5 8 "related" "morphological" 1.3 2.8 "badi" 4.554 "LJ22" "MPF" 4 "D" 734 "nonword" 86 1 620 "1" NA NA
"badiesco" 31085 "nonword" "badio" "esco" NA NA NA 5 8 "related" "morphological" 1.3 2.8 "badi" 4.554 "AB53" "MPF" 5 "D" 617 "nonword" 115 1 757 "1" NA NA
"badiesco" 31085 "nonword" "badio" "esco" NA NA NA 5 8 "related" "morphological" 1.3 2.8 "badi" 4.554 "AF8" "MPF" 2 "D" 1179 "nonword" 45 1 471 "1" NA NA
"badiesco" 31085 "nonword" "badio" "esco" NA NA NA 5 8 "related" "morphological" 1.3 2.8 "badi" 4.554 "IF14" "MPF" 2 "D" 625 "nonword" 161 1 713 "1" NA NA
"badiesco" 31085 "nonword" "badio" "esco" NA NA NA 5 8 "related" "morphological" 1.3 2.8 "badi" 4.554 "AV45" "MPF" 3 "D" 955 "nonword" 91 1 955 "1" NA NA
"badiesco" 31085 "nonword" "badio" "esco" NA NA NA 5 8 "related" "morphological" 1.3 2.8 "badi" 4.554 "DS31" "MPF" 1 "D" 543 "nonword" 81 1 463 "1" NA NA
"badiesco" 31085 "nonword" "badio" "esco" NA NA NA 5 8 "related" "morphological" 1.3 2.8 "badi" 4.554 "RE24" "MPF" 6 "S" 1059 "nonword" 75 1 0 "0" NA NA
"badiesco" 31085 "nonword" "badio" "esco" NA NA NA 5 8 "related" "morphological" 1.3 2.8 "badi" 4.554 "LC44" "MPF" 2 "D" 628 "nonword" 143 1 551 "1" NA NA
"badiesco" 31085 "nonword" "badio" "esco" NA NA NA 5 8 "related" "morphological" 1.3 2.8 "badi" 4.554 "SS41" "MPF" 5 "D" 662 "nonword" 45 1 457 "1" NA NA
"badiesco" 31085 "nonword" "badio" "esco" NA NA NA 5 8 "related" "morphological" 1.3 2.8 "badi" 4.554 "ACV34" "MPF" 4 "S" 648 "nonword" 81 1 459 "0" NA NA
"badiesco" 31085 "nonword" "badio" "esco" NA NA NA 5 8 "related" "morphological" 1.3 2.8 "badi" 4.554 "CS33" "MPF" 3 "D" 664 "nonword" 79 1 509 "1" NA NA
"badiesco" 31085 "nonword" "badio" "esco" NA NA NA 5 8 "related" "morphological" 1.3 2.8 "badi" 4.554 "VB10" "MPF" 4 "D" 557 "nonword" 86 1 545 "1" NA NA
"badiesco" 31085 "nonword" "badio" "esco" NA NA NA 5 8 "related" "morphological" 1.3 2.8 "badi" 4.554 "MV48" "MPF" 6 "D" 1025 "nonword" 45 1 720 "1" NA NA
"badiesco" 31085 "nonword" "badio" "esco" NA NA NA 5 8 "related" "morphological" 1.3 2.8 "badi" 4.554 "EM13" "MPF" 1 "D" 1160 "nonword" 75 1 909 "1" NA NA
"badiesco" 31085 "nonword" "badio" "esco" NA NA NA 5 8 "related" "morphological" 1.3 2.8 "badi" 4.554 "MT11" "MPF" 5 "S" 573 "nonword" 86 1 726 "1" NA NA
"badiesco" 31085 "nonword" "badio" "esco" NA NA NA 5 8 "related" "morphological" 1.3 2.8 "badi" 4.554 "DM7" "MPF" 1 "D" 1032 "nonword" 27 1 719 "1" NA NA
"badiesco" 31085 "nonword" "badio" "esco" NA NA NA 5 8 "related" "morphological" 1.3 2.8 "badi" 4.554 "ADB4" "MPF" 4 "D" 1192 "nonword" 86 1 1047 "0" NA NA
"badiesco" 31085 "nonword" "badio" "esco" NA NA NA 5 8 "related" "morphological" 1.3 2.8 "badi" 4.554 "RS56" "MPF" 5 "D" 554 "nonword" 131 1 479 "1" NA NA
"badiesco" 31085 "nonword" "badio" "esco" NA NA NA 5 8 "related" "morphological" 1.3 2.8 "badi" 4.554 "LM21" "MPF" 3 "D" 632 "nonword" 81 1 577 "1" NA NA
"badiesco" 31085 "nonword" "badio" "esco" NA NA NA 5 8 "related" "morphological" 1.3 2.8 "badi" 4.554 "MP15" "MPF" 3 "D" 799 "nonword" 45 1 697 "1" NA NA
"badiesco" 31085 "nonword" "badio" "esco" NA NA NA 5 8 "related" "morphological" 1.3 2.8 "badi" 4.554 "GDL30" "MPF" 6 "D" 602 "nonword" 146 1 643 "1" NA NA
"badiesco" 31085 "nonword" "badio" "esco" NA NA NA 5 8 "related" "morphological" 1.3 2.8 "badi" 4.554 "FLB20" "MPF" 2 "D" 699 "nonword" 45 1 787 "1" NA NA
"balgepre" 33122 "nonword" "vecro" "epre" NA NA NA 5 8 "unrelated" "LF_orthog" 1.5 2.8 "balg" 2.373 "GDL30" "MPF" 6 "D" 804 "nonword" 79 1 835 "1" NA NA
"balgepre" 33122 "nonword" "vecro" "epre" NA NA NA 5 8 "unrelated" "LF_orthog" 1.5 2.8 "balg" 2.373 "ADC28" "MPF" 4 "D" 551 "nonword" 120 1 739 "1" NA NA
"balgepre" 33122 "nonword" "vecro" "epre" NA NA NA 5 8 "unrelated" "LF_orthog" 1.5 2.8 "balg" 2.373 "SP12" "MPF" 6 "S" 638 "nonword" 73 1 654 "1" NA NA
"balgepre" 33122 "nonword" "vecro" "epre" NA NA NA 5 8 "unrelated" "LF_orthog" 1.5 2.8 "balg" 2.373 "GF54" "MPF" 6 "D" 435 "nonword" 81 1 557 "1" NA NA
"balgepre" 33122 "nonword" "vecro" "epre" NA NA NA 5 8 "unrelated" "LF_orthog" 1.5 2.8 "balg" 2.373 "SE23" "MPF" 5 "D" 0 "NoResponse" 20 0 1353 "1" NA NA
"balgepre" 33122 "nonword" "vecro" "epre" NA NA NA 5 8 "unrelated" "LF_orthog" 1.5 2.8 "balg" 2.373 "SDC32" "MPF" 2 "D" 530 "nonword" 121 1 555 "1" NA NA
"balgepre" 33122 "nonword" "vecro" "epre" NA NA NA 5 8 "unrelated" "LF_orthog" 1.5 2.8 "balg" 2.373 "EP37" "MPF" 1 "D" 0 "NoResponse" 109 0 0 "0" NA NA
"balgepre" 33122 "nonword" "vecro" "epre" NA NA NA 5 8 "unrelated" "LF_orthog" 1.5 2.8 "balg" 2.373 "EV51" "MPF" 3 "D" 933 "nonword" 121 1 711 "1" NA NA
"balgepre" 33122 "nonword" "vecro" "epre" NA NA NA 5 8 "unrelated" "LF_orthog" 1.5 2.8 "balg" 2.373 "AG25" "MPF" 1 "D" 665 "nonword" 124 1 950 "1" NA NA
"balgepre" 33122 "nonword" "vecro" "epre" NA NA NA 5 8 "unrelated" "LF_orthog" 1.5 2.8 "balg" 2.373 "MC26" "MPF" 2 "D" 704 "nonword" 145 1 587 "1" NA NA
"balgepre" 33122 "nonword" "vecro" "epre" NA NA NA 5 8 "unrelated" "LF_orthog" 1.5 2.8 "balg" 2.373 "MN5" "MPF" 5 "S" 711 "nonword" 51 1 696 "1" NA NA
"balgepre" 33122 "nonword" "vecro" "epre" NA NA NA 5 8 "unrelated" "LF_orthog" 1.5 2.8 "balg" 2.373 "EM13" "MPF" 1 "D" 761 "nonword" 51 1 732 "1" NA NA
"balgepre" 33122 "nonword" "vecro" "epre" NA NA NA 5 8 "unrelated" "LF_orthog" 1.5 2.8 "balg" 2.373 "GG27" "MPF" 3 "D" 1220 "nonword" 120 1 1033 "1" NA NA
"balgepre" 33122 "nonword" "vecro" "epre" NA NA NA 5 8 "unrelated" "LF_orthog" 1.5 2.8 "balg" 2.373 "GL47" "MPF" 5 "S" 0 "NoResponse" 147 0 0 "0" NA NA
"balgepre" 33122 "nonword" "vecro" "epre" NA NA NA 5 8 "unrelated" "LF_orthog" 1.5 2.8 "balg" 2.373 "GS36" "MPF" 6 "D" 558 "nonword" 121 1 578 "1" NA NA
"balgepre" 33122 "nonword" "vecro" "epre" NA NA NA 5 8 "unrelated" "LF_orthog" 1.5 2.8 "balg" 2.373 "GP40" "MPF" 4 "D" 866 "nonword" 40 1 663 "1" NA NA
"balgepre" 33122 "nonword" "vecro" "epre" NA NA NA 5 8 "unrelated" "LF_orthog" 1.5 2.8 "balg" 2.373 "LM21" "MPF" 3 "D" 645 "nonword" 121 1 455 "1" NA NA
"balgepre" 33122 "nonword" "vecro" "epre" NA NA NA 5 8 "unrelated" "LF_orthog" 1.5 2.8 "balg" 2.373 "IF14" "MPF" 2 "D" 739 "nonword" 121 1 657 "1" NA NA
"balgepre" 33122 "nonword" "vecro" "epre" NA NA NA 5 8 "unrelated" "LF_orthog" 1.5 2.8 "balg" 2.373 "SB35" "MPF" 5 "D" 829 "nonword" 121 1 1212 "1" NA NA
"balgepre" 33122 "nonword" "vecro" "epre" NA NA NA 5 8 "unrelated" "LF_orthog" 1.5 2.8 "balg" 2.373 "AB9" "MPF" 3 "D" 630 "nonword" 121 1 721 "1" NA NA
"balgepre" 33122 "nonword" "vecro" "epre" NA NA NA 5 8 "unrelated" "LF_orthog" 1.5 2.8 "balg" 2.373 "RS56" "MPF" 5 "D" 520 "nonword" 76 1 670 "1" NA NA
"balgepre" 33122 "nonword" "vecro" "epre" NA NA NA 5 8 "unrelated" "LF_orthog" 1.5 2.8 "balg" 2.373 "MC3" "MPF" 3 "D" 515 "nonword" 121 1 455 "1" NA NA
"balgepre" 33122 "nonword" "vecro" "epre" NA NA NA 5 8 "unrelated" "LF_orthog" 1.5 2.8 "balg" 2.373 "AF8" "MPF" 2 "D" 529 "word" 32 0 565 "1" NA NA
"balgepre" 33122 "nonword" "vecro" "epre" NA NA NA 5 8 "unrelated" "LF_orthog" 1.5 2.8 "balg" 2.373 "MVT19" "MPF" 1 "D" 700 "nonword" 121 1 696 "1" NA NA
"balgepre" 33122 "nonword" "vecro" "epre" NA NA NA 5 8 "unrelated" "LF_orthog" 1.5 2.8 "balg" 2.373 "AR50" "MPF" 2 "D" 644 "nonword" 121 1 495 "1" NA NA
"balgepre" 33122 "nonword" "vecro" "epre" NA NA NA 5 8 "unrelated" "LF_orthog" 1.5 2.8 "balg" 2.373 "ADB4" "MPF" 4 "D" 1123 "nonword" 109 1 1354 "1" NA NA
"balgepre" 33122 "nonword" "vecro" "epre" NA NA NA 5 8 "unrelated" "LF_orthog" 1.5 2.8 "balg" 2.373 "CS33" "MPF" 3 "D" 590 "nonword" 20 1 563 "1" NA NA
"balgepre" 33122 "nonword" "vecro" "epre" NA NA NA 5 8 "unrelated" "LF_orthog" 1.5 2.8 "balg" 2.373 "DC2" "MPF" 2 "D" 553 "nonword" 109 1 636 "1" NA NA
"balgepre" 33122 "nonword" "vecro" "epre" NA NA NA 5 8 "unrelated" "LF_orthog" 1.5 2.8 "balg" 2.373 "AV45" "MPF" 3 "D" 633 "nonword" 35 1 757 "1" NA NA
"balgepre" 33122 "nonword" "vecro" "epre" NA NA NA 5 8 "unrelated" "LF_orthog" 1.5 2.8 "balg" 2.373 "AB53" "MPF" 5 "D" 599 "nonword" 96 1 901 "1" NA NA
"balgepre" 33122 "nonword" "vecro" "epre" NA NA NA 5 8 "unrelated" "LF_orthog" 1.5 2.8 "balg" 2.373 "MT11" "MPF" 5 "S" 637 "word" 109 0 618 "1" NA NA
"balgepre" 33122 "nonword" "vecro" "epre" NA NA NA 5 8 "unrelated" "LF_orthog" 1.5 2.8 "balg" 2.373 "MV48" "MPF" 6 "D" 670 "nonword" 32 1 599 "1" NA NA
"balgepre" 33122 "nonword" "vecro" "epre" NA NA NA 5 8 "unrelated" "LF_orthog" 1.5 2.8 "balg" 2.373 "FC39" "MPF" 3 "S" 737 "nonword" 73 1 973 "1" NA NA
"balgepre" 33122 "nonword" "vecro" "epre" NA NA NA 5 8 "unrelated" "LF_orthog" 1.5 2.8 "balg" 2.373 "VB10" "MPF" 4 "D" 587 "nonword" 109 1 619 "1" NA NA
"balgepre" 33122 "nonword" "vecro" "epre" NA NA NA 5 8 "unrelated" "LF_orthog" 1.5 2.8 "balg" 2.373 "LJ22" "MPF" 4 "D" 571 "nonword" 109 1 487 "0" NA NA
"balgepre" 33122 "nonword" "vecro" "epre" NA NA NA 5 8 "unrelated" "LF_orthog" 1.5 2.8 "balg" 2.373 "SP17" "MPF" 5 "D" 787 "nonword" 20 1 1323 "1" NA NA
"balgepre" 33122 "nonword" "vecro" "epre" NA NA NA 5 8 "unrelated" "LF_orthog" 1.5 2.8 "balg" 2.373 "DM7" "MPF" 1 "D" 743 "nonword" 142 1 760 "1" NA NA
"balgepre" 33122 "nonword" "vecro" "epre" NA NA NA 5 8 "unrelated" "LF_orthog" 1.5 2.8 "balg" 2.373 "MC16" "MPF" 4 "D" 836 "nonword" 118 1 799 "1" NA NA
"balgepre" 33122 "nonword" "vecro" "epre" NA NA NA 5 8 "unrelated" "LF_orthog" 1.5 2.8 "balg" 2.373 "FD55" "MPF" 1 "D" 510 "nonword" 84 1 640 "1" NA NA
"balgepre" 33122 "nonword" "vecro" "epre" NA NA NA 5 8 "unrelated" "LF_orthog" 1.5 2.8 "balg" 2.373 "AC29" "MPF" 5 "D" 734 "nonword" 160 1 823 "1" NA NA
"balgepre" 33122 "nonword" "vecro" "epre" NA NA NA 5 8 "unrelated" "LF_orthog" 1.5 2.8 "balg" 2.373 "SS41" "MPF" 5 "D" 626 "nonword" 32 1 537 "1" NA NA
"balgepre" 33122 "nonword" "vecro" "epre" NA NA NA 5 8 "unrelated" "LF_orthog" 1.5 2.8 "balg" 2.373 "ACV34" "MPF" 4 "S" 496 "nonword" 121 1 485 "1" NA NA
"balgepre" 33122 "nonword" "vecro" "epre" NA NA NA 5 8 "unrelated" "LF_orthog" 1.5 2.8 "balg" 2.373 "RE24" "MPF" 6 "S" 662 "nonword" 51 1 1050 "1" NA NA
"balgepre" 33122 "nonword" "vecro" "epre" NA NA NA 5 8 "unrelated" "LF_orthog" 1.5 2.8 "balg" 2.373 "FC52" "MPF" 4 "D" 573 "nonword" 121 1 572 "1" NA NA
"balgepre" 33122 "nonword" "vecro" "epre" NA NA NA 5 8 "unrelated" "LF_orthog" 1.5 2.8 "balg" 2.373 "VA49" "MPF" 1 "D" 455 "nonword" 121 1 515 "1" NA NA
"balgepre" 33122 "nonword" "vecro" "epre" NA NA NA 5 8 "unrelated" "LF_orthog" 1.5 2.8 "balg" 2.373 "CC6" "MPF" 6 "D" 784 "nonword" 142 1 705 "1" NA NA
"balgepre" 33122 "nonword" "vecro" "epre" NA NA NA 5 8 "unrelated" "LF_orthog" 1.5 2.8 "balg" 2.373 "AA18" "MPF" 6 "D" 595 "nonword" 40 1 666 "1" NA NA
"balgepre" 33122 "nonword" "vecro" "epre" NA NA NA 5 8 "unrelated" "LF_orthog" 1.5 2.8 "balg" 2.373 "ZF42" "MPF" 6 "D" 546 "word" 32 0 537 "1" NA NA
"balgepre" 33122 "nonword" "vecro" "epre" NA NA NA 5 8 "unrelated" "LF_orthog" 1.5 2.8 "balg" 2.373 "AC43" "MPF" 1 "D" 896 "nonword" 74 1 827 "1" NA NA
"balgepre" 33122 "nonword" "vecro" "epre" NA NA NA 5 8 "unrelated" "LF_orthog" 1.5 2.8 "balg" 2.373 "FLB20" "MPF" 2 "D" 686 "nonword" 32 1 651 "1" NA NA
"balgepre" 33122 "nonword" "vecro" "epre" NA NA NA 5 8 "unrelated" "LF_orthog" 1.5 2.8 "balg" 2.373 "CF1" "MPF" 1 "D" 534 "nonword" 32 1 579 "1" NA NA
"balgepre" 33122 "nonword" "vecro" "epre" NA NA NA 5 8 "unrelated" "LF_orthog" 1.5 2.8 "balg" 2.373 "DS31" "MPF" 1 "D" 637 "nonword" 121 1 499 "1" NA NA
"balgepre" 33122 "nonword" "vecro" "epre" NA NA NA 5 8 "unrelated" "LF_orthog" 1.5 2.8 "balg" 2.373 "MP15" "MPF" 3 "D" 654 "nonword" 32 1 689 "1" NA NA
"balgepre" 33122 "nonword" "vecro" "epre" NA NA NA 5 8 "unrelated" "LF_orthog" 1.5 2.8 "balg" 2.373 "LC44" "MPF" 2 "D" 635 "nonword" 169 1 616 "1" NA NA
"balgepre" 33122 "nonword" "vecro" "epre" NA NA NA 5 8 "unrelated" "LF_orthog" 1.5 2.8 "balg" 2.373 "GC46" "MPF" 4 "D" 622 "nonword" 59 1 574 "0" NA NA
"balgepre" 33122 "nonword" "vecro" "epre" NA NA NA 5 8 "unrelated" "LF_orthog" 1.5 2.8 "balg" 2.373 "MB38" "MPF" 2 "D" 631 "nonword" 106 1 621 "1" NA NA
"bambolarno" 13068 "word" "bambola" "arno" 3.193 "simbolo" 3.191 7 10 "related" "LF_orthog" 1.5 3.45 "bambol" 2.009 "ACV34" "MPF" 4 "S" 457 "word" 69 1 428 "1" NA NA
"bambolarno" 13068 "word" "bambola" "arno" 3.193 "simbolo" 3.191 7 10 "related" "LF_orthog" 1.5 3.45 "bambol" 2.009 "ADC28" "MPF" 4 "D" 468 "word" 81 1 475 "1" NA NA
"bambolarno" 13068 "word" "bambola" "arno" 3.193 "simbolo" 3.191 7 10 "related" "LF_orthog" 1.5 3.45 "bambol" 2.009 "LJ22" "MPF" 4 "D" 470 "word" 96 1 662 "1" NA NA
"bambolarno" 13068 "word" "bambola" "arno" 3.193 "simbolo" 3.191 7 10 "related" "LF_orthog" 1.5 3.45 "bambol" 2.009 "GC46" "MPF" 4 "D" 546 "word" 37 1 614 "1" NA NA
"bambolarno" 13068 "word" "bambola" "arno" 3.193 "simbolo" 3.191 7 10 "related" "LF_orthog" 1.5 3.45 "bambol" 2.009 "FC52" "MPF" 4 "D" 548 "word" 69 1 552 "1" NA NA
"bambolarno" 13068 "word" "bambola" "arno" 3.193 "simbolo" 3.191 7 10 "related" "LF_orthog" 1.5 3.45 "bambol" 2.009 "ADB4" "MPF" 4 "D" 638 "word" 96 1 799 "1" NA NA
"bambolarno" 13068 "word" "bambola" "arno" 3.193 "simbolo" 3.191 7 10 "related" "LF_orthog" 1.5 3.45 "bambol" 2.009 "MC16" "MPF" 4 "D" 721 "word" 131 1 619 "1" NA NA
"bambolarno" 13068 "word" "bambola" "arno" 3.193 "simbolo" 3.191 7 10 "related" "LF_orthog" 1.5 3.45 "bambol" 2.009 "VB10" "MPF" 4 "D" 484 "word" 96 1 530 "1" NA NA
"bambolarno" 13068 "word" "bambola" "arno" 3.193 "simbolo" 3.191 7 10 "related" "LF_orthog" 1.5 3.45 "bambol" 2.009 "GP40" "MPF" 4 "D" 611 "word" 81 1 747 "1" NA NA
"bamboliero" 11068 "word" "bambola" "iero" 3.193 "simbolo" 3.191 7 10 "related" "morphological" 1.5 2.95 "bambol" 4.172 "SDC32" "MPF" 2 "D" 367 "word" 69 1 527 "1" 0.0359557367880373 0.372638349906173
"bamboliero" 11068 "word" "bambola" "iero" 3.193 "simbolo" 3.191 7 10 "related" "morphological" 1.5 2.95 "bambol" 4.172 "DC2" "MPF" 2 "D" 526 "word" 96 1 520 "1" 0.0359557367880373 0.372638349906173
"bamboliero" 11068 "word" "bambola" "iero" 3.193 "simbolo" 3.191 7 10 "related" "morphological" 1.5 2.95 "bambol" 4.172 "FLB20" "MPF" 2 "D" 493 "word" 131 1 651 "1" 0.0359557367880373 0.372638349906173
"bamboliero" 11068 "word" "bambola" "iero" 3.193 "simbolo" 3.191 7 10 "related" "morphological" 1.5 2.95 "bambol" 4.172 "LC44" "MPF" 2 "D" 496 "word" 129 1 511 "1" 0.0359557367880373 0.372638349906173
"bamboliero" 11068 "word" "bambola" "iero" 3.193 "simbolo" 3.191 7 10 "related" "morphological" 1.5 2.95 "bambol" 4.172 "AF8" "MPF" 2 "D" 449 "word" 131 1 390 "0" 0.0359557367880373 0.372638349906173
"bamboliero" 11068 "word" "bambola" "iero" 3.193 "simbolo" 3.191 7 10 "related" "morphological" 1.5 2.95 "bambol" 4.172 "MC26" "MPF" 2 "D" 530 "word" 107 1 649 "1" 0.0359557367880373 0.372638349906173
"bamboliero" 11068 "word" "bambola" "iero" 3.193 "simbolo" 3.191 7 10 "related" "morphological" 1.5 2.95 "bambol" 4.172 "MB38" "MPF" 2 "D" 637 "word" 159 1 735 "1" 0.0359557367880373 0.372638349906173
"bamboliero" 11068 "word" "bambola" "iero" 3.193 "simbolo" 3.191 7 10 "related" "morphological" 1.5 2.95 "bambol" 4.172 "AR50" "MPF" 2 "D" 594 "word" 69 1 535 "1" 0.0359557367880373 0.372638349906173
"bamboliero" 11068 "word" "bambola" "iero" 3.193 "simbolo" 3.191 7 10 "related" "morphological" 1.5 2.95 "bambol" 4.172 "IF14" "MPF" 2 "D" 623 "word" 110 1 660 "1" 0.0359557367880373 0.372638349906173
"bamboloppo" 12068 "word" "bambola" "oppo" 3.193 "simbolo" 3.191 7 10 "related" "HF_orthog" 1.5 3.5 "bambol" 4.816 "AV45" "MPF" 3 "D" 684 "word" 27 1 686 "1" NA NA
"bamboloppo" 12068 "word" "bambola" "oppo" 3.193 "simbolo" 3.191 7 10 "related" "HF_orthog" 1.5 3.5 "bambol" 4.816 "MC3" "MPF" 3 "D" 967 "word" 69 1 545 "1" NA NA
"bamboloppo" 12068 "word" "bambola" "oppo" 3.193 "simbolo" 3.191 7 10 "related" "HF_orthog" 1.5 3.5 "bambol" 4.816 "FC39" "MPF" 3 "S" 539 "word" 52 1 821 "1" NA NA
"bamboloppo" 12068 "word" "bambola" "oppo" 3.193 "simbolo" 3.191 7 10 "related" "HF_orthog" 1.5 3.5 "bambol" 4.816 "AB9" "MPF" 3 "D" 543 "word" 69 1 464 "1" NA NA
"bamboloppo" 12068 "word" "bambola" "oppo" 3.193 "simbolo" 3.191 7 10 "related" "HF_orthog" 1.5 3.5 "bambol" 4.816 "EV51" "MPF" 3 "D" 603 "word" 69 1 505 "1" NA NA
"bamboloppo" 12068 "word" "bambola" "oppo" 3.193 "simbolo" 3.191 7 10 "related" "HF_orthog" 1.5 3.5 "bambol" 4.816 "CS33" "MPF" 3 "D" 511 "word" 37 1 546 "1" NA NA
"bamboloppo" 12068 "word" "bambola" "oppo" 3.193 "simbolo" 3.191 7 10 "related" "HF_orthog" 1.5 3.5 "bambol" 4.816 "MP15" "MPF" 3 "D" 568 "word" 131 1 732 "1" NA NA
"bamboloppo" 12068 "word" "bambola" "oppo" 3.193 "simbolo" 3.191 7 10 "related" "HF_orthog" 1.5 3.5 "bambol" 4.816 "LM21" "MPF" 3 "D" 620 "word" 69 1 501 "1" NA NA
"bamboloppo" 12068 "word" "bambola" "oppo" 3.193 "simbolo" 3.191 7 10 "related" "HF_orthog" 1.5 3.5 "bambol" 4.816 "GG27" "MPF" 3 "D" 1186 "word" 63 1 1018 "1" NA NA
"bampinerpe" 33102 "nonword" "bampino" "erpe" NA NA NA 7 10 "related" "LF_orthog" 1.55 3.65 "bampin" 2.328 "SP12" "MPF" 6 "S" 656 "nonword" 95 1 643 "1" NA NA
"bampinerpe" 33102 "nonword" "bampino" "erpe" NA NA NA 7 10 "related" "LF_orthog" 1.55 3.65 "bampin" 2.328 "AV45" "MPF" 3 "D" 664 "nonword" 149 1 608 "1" NA NA
"bampinerpe" 33102 "nonword" "bampino" "erpe" NA NA NA 7 10 "related" "LF_orthog" 1.55 3.65 "bampin" 2.328 "SP17" "MPF" 5 "D" 932 "nonword" 99 1 669 "1" NA NA
"bampinerpe" 33102 "nonword" "bampino" "erpe" NA NA NA 7 10 "related" "LF_orthog" 1.55 3.65 "bampin" 2.328 "AC29" "MPF" 5 "D" 784 "nonword" 149 1 975 "0" NA NA
"bampinerpe" 33102 "nonword" "bampino" "erpe" NA NA NA 7 10 "related" "LF_orthog" 1.55 3.65 "bampin" 2.328 "MC16" "MPF" 4 "D" 772 "nonword" 174 1 577 "1" NA NA
"bampinerpe" 33102 "nonword" "bampino" "erpe" NA NA NA 7 10 "related" "LF_orthog" 1.55 3.65 "bampin" 2.328 "GS36" "MPF" 6 "D" 910 "nonword" 77 1 639 "1" NA NA
"bampinerpe" 33102 "nonword" "bampino" "erpe" NA NA NA 7 10 "related" "LF_orthog" 1.55 3.65 "bampin" 2.328 "MT11" "MPF" 5 "S" 568 "word" 147 0 655 "1" NA NA
"bampinerpe" 33102 "nonword" "bampino" "erpe" NA NA NA 7 10 "related" "LF_orthog" 1.55 3.65 "bampin" 2.328 "ADB4" "MPF" 4 "D" 990 "nonword" 147 1 983 "1" NA NA
"bampinerpe" 33102 "nonword" "bampino" "erpe" NA NA NA 7 10 "related" "LF_orthog" 1.55 3.65 "bampin" 2.328 "LC44" "MPF" 2 "D" 535 "nonword" 53 1 593 "1" NA NA
"bampinerpe" 33102 "nonword" "bampino" "erpe" NA NA NA 7 10 "related" "LF_orthog" 1.55 3.65 "bampin" 2.328 "MN5" "MPF" 5 "S" 805 "nonword" 28 1 773 "1" NA NA
"bampinerpe" 33102 "nonword" "bampino" "erpe" NA NA NA 7 10 "related" "LF_orthog" 1.55 3.65 "bampin" 2.328 "FC52" "MPF" 4 "D" 723 "nonword" 156 1 532 "0" NA NA
"bampinerpe" 33102 "nonword" "bampino" "erpe" NA NA NA 7 10 "related" "LF_orthog" 1.55 3.65 "bampin" 2.328 "GL47" "MPF" 5 "S" 0 "NoResponse" 138 0 0 "0" NA NA
"bampinerpe" 33102 "nonword" "bampino" "erpe" NA NA NA 7 10 "related" "LF_orthog" 1.55 3.65 "bampin" 2.328 "ADC28" "MPF" 4 "D" 810 "nonword" 158 1 511 "1" NA NA
"bampinerpe" 33102 "nonword" "bampino" "erpe" NA NA NA 7 10 "related" "LF_orthog" 1.55 3.65 "bampin" 2.328 "MB38" "MPF" 2 "D" 698 "nonword" 102 1 743 "1" NA NA
"bampinerpe" 33102 "nonword" "bampino" "erpe" NA NA NA 7 10 "related" "LF_orthog" 1.55 3.65 "bampin" 2.328 "EV51" "MPF" 3 "D" 764 "nonword" 156 1 1405 "1" NA NA
"bampinerpe" 33102 "nonword" "bampino" "erpe" NA NA NA 7 10 "related" "LF_orthog" 1.55 3.65 "bampin" 2.328 "CF1" "MPF" 1 "D" 602 "nonword" 99 1 615 "0" NA NA
"bampinerpe" 33102 "nonword" "bampino" "erpe" NA NA NA 7 10 "related" "LF_orthog" 1.55 3.65 "bampin" 2.328 "MP15" "MPF" 3 "D" 874 "nonword" 99 1 697 "1" NA NA
"bampinerpe" 33102 "nonword" "bampino" "erpe" NA NA NA 7 10 "related" "LF_orthog" 1.55 3.65 "bampin" 2.328 "ACV34" "MPF" 4 "S" 753 "nonword" 156 1 686 "1" NA NA
"bampinerpe" 33102 "nonword" "bampino" "erpe" NA NA NA 7 10 "related" "LF_orthog" 1.55 3.65 "bampin" 2.328 "FLB20" "MPF" 2 "D" 871 "nonword" 99 1 548 "1" NA NA
"bampinerpe" 33102 "nonword" "bampino" "erpe" NA NA NA 7 10 "related" "LF_orthog" 1.55 3.65 "bampin" 2.328 "SE23" "MPF" 5 "D" 1242 "nonword" 99 1 744 "1" NA NA
"bampinerpe" 33102 "nonword" "bampino" "erpe" NA NA NA 7 10 "related" "LF_orthog" 1.55 3.65 "bampin" 2.328 "LJ22" "MPF" 4 "D" 733 "nonword" 147 1 678 "0" NA NA
"bampinerpe" 33102 "nonword" "bampino" "erpe" NA NA NA 7 10 "related" "LF_orthog" 1.55 3.65 "bampin" 2.328 "GDL30" "MPF" 6 "D" 635 "nonword" 56 1 726 "1" NA NA
"bampinerpe" 33102 "nonword" "bampino" "erpe" NA NA NA 7 10 "related" "LF_orthog" 1.55 3.65 "bampin" 2.328 "MVT19" "MPF" 1 "D" 873 "nonword" 156 1 663 "1" NA NA
"bampinerpe" 33102 "nonword" "bampino" "erpe" NA NA NA 7 10 "related" "LF_orthog" 1.55 3.65 "bampin" 2.328 "AG25" "MPF" 1 "D" 716 "nonword" 58 1 546 "1" NA NA
"bampinerpe" 33102 "nonword" "bampino" "erpe" NA NA NA 7 10 "related" "LF_orthog" 1.55 3.65 "bampin" 2.328 "GP40" "MPF" 4 "D" 866 "nonword" 27 1 535 "1" NA NA
"bampinerpe" 33102 "nonword" "bampino" "erpe" NA NA NA 7 10 "related" "LF_orthog" 1.55 3.65 "bampin" 2.328 "MC26" "MPF" 2 "D" 751 "nonword" 28 1 638 "1" NA NA
"bampinerpe" 33102 "nonword" "bampino" "erpe" NA NA NA 7 10 "related" "LF_orthog" 1.55 3.65 "bampin" 2.328 "VB10" "MPF" 4 "D" 880 "nonword" 147 1 737 "1" NA NA
"bampinerpe" 33102 "nonword" "bampino" "erpe" NA NA NA 7 10 "related" "LF_orthog" 1.55 3.65 "bampin" 2.328 "CC6" "MPF" 6 "D" 692 "nonword" 157 1 1158 "1" NA NA
"bampinerpe" 33102 "nonword" "bampino" "erpe" NA NA NA 7 10 "related" "LF_orthog" 1.55 3.65 "bampin" 2.328 "CS33" "MPF" 3 "D" 707 "nonword" 99 1 944 "1" NA NA
"bampinerpe" 33102 "nonword" "bampino" "erpe" NA NA NA 7 10 "related" "LF_orthog" 1.55 3.65 "bampin" 2.328 "MV48" "MPF" 6 "D" 795 "nonword" 99 1 546 "1" NA NA
"bampinerpe" 33102 "nonword" "bampino" "erpe" NA NA NA 7 10 "related" "LF_orthog" 1.55 3.65 "bampin" 2.328 "AB53" "MPF" 5 "D" 801 "nonword" 81 1 689 "1" NA NA
"bampinerpe" 33102 "nonword" "bampino" "erpe" NA NA NA 7 10 "related" "LF_orthog" 1.55 3.65 "bampin" 2.328 "EM13" "MPF" 1 "D" 945 "nonword" 28 1 1012 "1" NA NA
"bampinerpe" 33102 "nonword" "bampino" "erpe" NA NA NA 7 10 "related" "LF_orthog" 1.55 3.65 "bampin" 2.328 "AF8" "MPF" 2 "D" 594 "nonword" 99 1 449 "1" NA NA
"bampinerpe" 33102 "nonword" "bampino" "erpe" NA NA NA 7 10 "related" "LF_orthog" 1.55 3.65 "bampin" 2.328 "AB9" "MPF" 3 "D" 1015 "nonword" 156 1 688 "1" NA NA
"bampinerpe" 33102 "nonword" "bampino" "erpe" NA NA NA 7 10 "related" "LF_orthog" 1.55 3.65 "bampin" 2.328 "ZF42" "MPF" 6 "D" 951 "nonword" 99 1 418 "1" NA NA
"bampinerpe" 33102 "nonword" "bampino" "erpe" NA NA NA 7 10 "related" "LF_orthog" 1.55 3.65 "bampin" 2.328 "AC43" "MPF" 1 "D" 688 "nonword" 82 1 1023 "1" NA NA
"bampinerpe" 33102 "nonword" "bampino" "erpe" NA NA NA 7 10 "related" "LF_orthog" 1.55 3.65 "bampin" 2.328 "FD55" "MPF" 1 "D" 769 "nonword" 27 1 637 "0" NA NA
"bampinerpe" 33102 "nonword" "bampino" "erpe" NA NA NA 7 10 "related" "LF_orthog" 1.55 3.65 "bampin" 2.328 "GC46" "MPF" 4 "D" 809 "nonword" 118 1 739 "1" NA NA
"bampinerpe" 33102 "nonword" "bampino" "erpe" NA NA NA 7 10 "related" "LF_orthog" 1.55 3.65 "bampin" 2.328 "AA18" "MPF" 6 "D" 552 "nonword" 27 1 679 "1" NA NA
"bampinerpe" 33102 "nonword" "bampino" "erpe" NA NA NA 7 10 "related" "LF_orthog" 1.55 3.65 "bampin" 2.328 "FC39" "MPF" 3 "S" 1249 "nonword" 95 1 934 "1" NA NA
"bampinerpe" 33102 "nonword" "bampino" "erpe" NA NA NA 7 10 "related" "LF_orthog" 1.55 3.65 "bampin" 2.328 "EP37" "MPF" 1 "D" 858 "nonword" 147 1 779 "1" NA NA
"bampinerpe" 33102 "nonword" "bampino" "erpe" NA NA NA 7 10 "related" "LF_orthog" 1.55 3.65 "bampin" 2.328 "DS31" "MPF" 1 "D" 652 "nonword" 156 1 536 "1" NA NA
"bampinerpe" 33102 "nonword" "bampino" "erpe" NA NA NA 7 10 "related" "LF_orthog" 1.55 3.65 "bampin" 2.328 "DM7" "MPF" 1 "D" 655 "nonword" 157 1 563 "1" NA NA
"bampinerpe" 33102 "nonword" "bampino" "erpe" NA NA NA 7 10 "related" "LF_orthog" 1.55 3.65 "bampin" 2.328 "GG27" "MPF" 3 "D" 966 "nonword" 31 1 731 "1" NA NA
"bampinerpe" 33102 "nonword" "bampino" "erpe" NA NA NA 7 10 "related" "LF_orthog" 1.55 3.65 "bampin" 2.328 "VA49" "MPF" 1 "D" 660 "nonword" 156 1 908 "1" NA NA
"bampinerpe" 33102 "nonword" "bampino" "erpe" NA NA NA 7 10 "related" "LF_orthog" 1.55 3.65 "bampin" 2.328 "SS41" "MPF" 5 "D" 728 "nonword" 99 1 1293 "1" NA NA
"bampinerpe" 33102 "nonword" "bampino" "erpe" NA NA NA 7 10 "related" "LF_orthog" 1.55 3.65 "bampin" 2.328 "RS56" "MPF" 5 "D" 800 "nonword" 64 1 684 "1" NA NA
"bampinerpe" 33102 "nonword" "bampino" "erpe" NA NA NA 7 10 "related" "LF_orthog" 1.55 3.65 "bampin" 2.328 "SDC32" "MPF" 2 "D" 653 "nonword" 156 1 986 "1" NA NA
"bampinerpe" 33102 "nonword" "bampino" "erpe" NA NA NA 7 10 "related" "LF_orthog" 1.55 3.65 "bampin" 2.328 "MC3" "MPF" 3 "D" 718 "nonword" 156 1 858 "1" NA NA
"bampinerpe" 33102 "nonword" "bampino" "erpe" NA NA NA 7 10 "related" "LF_orthog" 1.55 3.65 "bampin" 2.328 "IF14" "MPF" 2 "D" 684 "nonword" 77 1 626 "1" NA NA
"bampinerpe" 33102 "nonword" "bampino" "erpe" NA NA NA 7 10 "related" "LF_orthog" 1.55 3.65 "bampin" 2.328 "AR50" "MPF" 2 "D" 671 "nonword" 156 1 642 "1" NA NA
"bampinerpe" 33102 "nonword" "bampino" "erpe" NA NA NA 7 10 "related" "LF_orthog" 1.55 3.65 "bampin" 2.328 "GF54" "MPF" 6 "D" 486 "nonword" 77 1 463 "1" NA NA
"bampinerpe" 33102 "nonword" "bampino" "erpe" NA NA NA 7 10 "related" "LF_orthog" 1.55 3.65 "bampin" 2.328 "SB35" "MPF" 5 "D" 789 "nonword" 156 1 1057 "1" NA NA
"bampinerpe" 33102 "nonword" "bampino" "erpe" NA NA NA 7 10 "related" "LF_orthog" 1.55 3.65 "bampin" 2.328 "DC2" "MPF" 2 "D" 654 "nonword" 147 1 576 "1" NA NA
"bampinerpe" 33102 "nonword" "bampino" "erpe" NA NA NA 7 10 "related" "LF_orthog" 1.55 3.65 "bampin" 2.328 "RE24" "MPF" 6 "S" 908 "nonword" 28 1 528 "0" NA NA
"bampinerpe" 33102 "nonword" "bampino" "erpe" NA NA NA 7 10 "related" "LF_orthog" 1.55 3.65 "bampin" 2.328 "LM21" "MPF" 3 "D" 791 "nonword" 156 1 864 "1" NA NA
"bangutto" 32086 "nonword" "banga" "utto" NA NA NA 5 8 "related" "HF_orthog" 1 2.7 "bang" 5.467 "AC43" "MPF" 1 "D" 713 "word" 32 0 493 "1" NA NA
"bangutto" 32086 "nonword" "banga" "utto" NA NA NA 5 8 "related" "HF_orthog" 1 2.7 "bang" 5.467 "DC2" "MPF" 2 "D" 583 "nonword" 85 1 641 "1" NA NA
"bangutto" 32086 "nonword" "banga" "utto" NA NA NA 5 8 "related" "HF_orthog" 1 2.7 "bang" 5.467 "GS36" "MPF" 6 "D" 605 "nonword" 157 1 638 "1" NA NA
"bangutto" 32086 "nonword" "banga" "utto" NA NA NA 5 8 "related" "HF_orthog" 1 2.7 "bang" 5.467 "MT11" "MPF" 5 "S" 726 "nonword" 85 1 831 "1" NA NA
"bangutto" 32086 "nonword" "banga" "utto" NA NA NA 5 8 "related" "HF_orthog" 1 2.7 "bang" 5.467 "GDL30" "MPF" 6 "D" 862 "nonword" 142 1 641 "1" NA NA
"bangutto" 32086 "nonword" "banga" "utto" NA NA NA 5 8 "related" "HF_orthog" 1 2.7 "bang" 5.467 "IF14" "MPF" 2 "D" 739 "nonword" 157 1 671 "1" NA NA
"bangutto" 32086 "nonword" "banga" "utto" NA NA NA 5 8 "related" "HF_orthog" 1 2.7 "bang" 5.467 "SP17" "MPF" 5 "D" 919 "nonword" 83 1 1233 "1" NA NA
"bangutto" 32086 "nonword" "banga" "utto" NA NA NA 5 8 "related" "HF_orthog" 1 2.7 "bang" 5.467 "EM13" "MPF" 1 "D" 1127 "nonword" 78 1 802 "1" NA NA
"bangutto" 32086 "nonword" "banga" "utto" NA NA NA 5 8 "related" "HF_orthog" 1 2.7 "bang" 5.467 "SP12" "MPF" 6 "S" 649 "nonword" 65 1 621 "1" NA NA
"bangutto" 32086 "nonword" "banga" "utto" NA NA NA 5 8 "related" "HF_orthog" 1 2.7 "bang" 5.467 "AG25" "MPF" 1 "D" 633 "nonword" 26 1 523 "1" NA NA
"bangutto" 32086 "nonword" "banga" "utto" NA NA NA 5 8 "related" "HF_orthog" 1 2.7 "bang" 5.467 "CC6" "MPF" 6 "D" 506 "word" 26 0 582 "1" NA NA
"bangutto" 32086 "nonword" "banga" "utto" NA NA NA 5 8 "related" "HF_orthog" 1 2.7 "bang" 5.467 "FC52" "MPF" 4 "D" 594 "nonword" 85 1 570 "1" NA NA
"bangutto" 32086 "nonword" "banga" "utto" NA NA NA 5 8 "related" "HF_orthog" 1 2.7 "bang" 5.467 "EP37" "MPF" 1 "D" 1489 "nonword" 85 1 1038 "1" NA NA
"bangutto" 32086 "nonword" "banga" "utto" NA NA NA 5 8 "related" "HF_orthog" 1 2.7 "bang" 5.467 "VB10" "MPF" 4 "D" 545 "nonword" 85 1 559 "1" NA NA
"bangutto" 32086 "nonword" "banga" "utto" NA NA NA 5 8 "related" "HF_orthog" 1 2.7 "bang" 5.467 "FLB20" "MPF" 2 "D" 740 "nonword" 47 1 1035 "1" NA NA
"bangutto" 32086 "nonword" "banga" "utto" NA NA NA 5 8 "related" "HF_orthog" 1 2.7 "bang" 5.467 "ADB4" "MPF" 4 "D" 1047 "word" 85 0 1058 "1" NA NA
"bangutto" 32086 "nonword" "banga" "utto" NA NA NA 5 8 "related" "HF_orthog" 1 2.7 "bang" 5.467 "MV48" "MPF" 6 "D" 639 "nonword" 47 1 613 "1" NA NA
"bangutto" 32086 "nonword" "banga" "utto" NA NA NA 5 8 "related" "HF_orthog" 1 2.7 "bang" 5.467 "CF1" "MPF" 1 "D" 694 "nonword" 47 1 642 "1" NA NA
"bangutto" 32086 "nonword" "banga" "utto" NA NA NA 5 8 "related" "HF_orthog" 1 2.7 "bang" 5.467 "MP15" "MPF" 3 "D" 793 "nonword" 47 1 832 "1" NA NA
"bangutto" 32086 "nonword" "banga" "utto" NA NA NA 5 8 "related" "HF_orthog" 1 2.7 "bang" 5.467 "LJ22" "MPF" 4 "D" 620 "nonword" 85 1 628 "1" NA NA
"bangutto" 32086 "nonword" "banga" "utto" NA NA NA 5 8 "related" "HF_orthog" 1 2.7 "bang" 5.467 "CS33" "MPF" 3 "D" 874 "nonword" 83 1 459 "1" NA NA
"bangutto" 32086 "nonword" "banga" "utto" NA NA NA 5 8 "related" "HF_orthog" 1 2.7 "bang" 5.467 "GP40" "MPF" 4 "D" 730 "nonword" 66 1 635 "1" NA NA
"bangutto" 32086 "nonword" "banga" "utto" NA NA NA 5 8 "related" "HF_orthog" 1 2.7 "bang" 5.467 "MC26" "MPF" 2 "D" 698 "nonword" 97 1 548 "1" NA NA
"bangutto" 32086 "nonword" "banga" "utto" NA NA NA 5 8 "related" "HF_orthog" 1 2.7 "bang" 5.467 "AF8" "MPF" 2 "D" 604 "nonword" 47 1 652 "1" NA NA
"bangutto" 32086 "nonword" "banga" "utto" NA NA NA 5 8 "related" "HF_orthog" 1 2.7 "bang" 5.467 "GF54" "MPF" 6 "D" 530 "nonword" 107 1 413 "1" NA NA
"bangutto" 32086 "nonword" "banga" "utto" NA NA NA 5 8 "related" "HF_orthog" 1 2.7 "bang" 5.467 "MB38" "MPF" 2 "D" 594 "nonword" 30 1 580 "1" NA NA
"bangutto" 32086 "nonword" "banga" "utto" NA NA NA 5 8 "related" "HF_orthog" 1 2.7 "bang" 5.467 "ZF42" "MPF" 6 "D" 1005 "nonword" 47 1 870 "0" NA NA
"bangutto" 32086 "nonword" "banga" "utto" NA NA NA 5 8 "related" "HF_orthog" 1 2.7 "bang" 5.467 "GC46" "MPF" 4 "D" 506 "nonword" 158 1 470 "1" NA NA
"bangutto" 32086 "nonword" "banga" "utto" NA NA NA 5 8 "related" "HF_orthog" 1 2.7 "bang" 5.467 "MVT19" "MPF" 1 "D" 602 "nonword" 85 1 716 "1" NA NA
"bangutto" 32086 "nonword" "banga" "utto" NA NA NA 5 8 "related" "HF_orthog" 1 2.7 "bang" 5.467 "ACV34" "MPF" 4 "S" 553 "nonword" 85 1 524 "1" NA NA
"bangutto" 32086 "nonword" "banga" "utto" NA NA NA 5 8 "related" "HF_orthog" 1 2.7 "bang" 5.467 "SS41" "MPF" 5 "D" 841 "nonword" 47 1 744 "1" NA NA
"bangutto" 32086 "nonword" "banga" "utto" NA NA NA 5 8 "related" "HF_orthog" 1 2.7 "bang" 5.467 "FD55" "MPF" 1 "D" 646 "nonword" 148 1 602 "1" NA NA
"bangutto" 32086 "nonword" "banga" "utto" NA NA NA 5 8 "related" "HF_orthog" 1 2.7 "bang" 5.467 "AB53" "MPF" 5 "D" 627 "nonword" 117 1 717 "1" NA NA
"bangutto" 32086 "nonword" "banga" "utto" NA NA NA 5 8 "related" "HF_orthog" 1 2.7 "bang" 5.467 "EV51" "MPF" 3 "D" 906 "nonword" 85 1 539 "1" NA NA
"bangutto" 32086 "nonword" "banga" "utto" NA NA NA 5 8 "related" "HF_orthog" 1 2.7 "bang" 5.467 "MC3" "MPF" 3 "D" 646 "nonword" 85 1 519 "1" NA NA
"bangutto" 32086 "nonword" "banga" "utto" NA NA NA 5 8 "related" "HF_orthog" 1 2.7 "bang" 5.467 "GL47" "MPF" 5 "S" 0 "NoResponse" 72 0 456 "1" NA NA
"bangutto" 32086 "nonword" "banga" "utto" NA NA NA 5 8 "related" "HF_orthog" 1 2.7 "bang" 5.467 "AA18" "MPF" 6 "D" 644 "nonword" 66 1 627 "1" NA NA
"bangutto" 32086 "nonword" "banga" "utto" NA NA NA 5 8 "related" "HF_orthog" 1 2.7 "bang" 5.467 "GG27" "MPF" 3 "D" 907 "nonword" 111 1 599 "1" NA NA
"bangutto" 32086 "nonword" "banga" "utto" NA NA NA 5 8 "related" "HF_orthog" 1 2.7 "bang" 5.467 "RS56" "MPF" 5 "D" 648 "nonword" 132 1 554 "1" NA NA
"bangutto" 32086 "nonword" "banga" "utto" NA NA NA 5 8 "related" "HF_orthog" 1 2.7 "bang" 5.467 "DM7" "MPF" 1 "D" 719 "nonword" 26 1 756 "1" NA NA
"bangutto" 32086 "nonword" "banga" "utto" NA NA NA 5 8 "related" "HF_orthog" 1 2.7 "bang" 5.467 "DS31" "MPF" 1 "D" 517 "nonword" 85 1 429 "1" NA NA
"bangutto" 32086 "nonword" "banga" "utto" NA NA NA 5 8 "related" "HF_orthog" 1 2.7 "bang" 5.467 "LM21" "MPF" 3 "D" 934 "nonword" 85 1 595 "1" NA NA
"bangutto" 32086 "nonword" "banga" "utto" NA NA NA 5 8 "related" "HF_orthog" 1 2.7 "bang" 5.467 "VA49" "MPF" 1 "D" 462 "nonword" 85 1 479 "1" NA NA
"bangutto" 32086 "nonword" "banga" "utto" NA NA NA 5 8 "related" "HF_orthog" 1 2.7 "bang" 5.467 "MN5" "MPF" 5 "S" 721 "nonword" 78 1 457 "1" NA NA
"bangutto" 32086 "nonword" "banga" "utto" NA NA NA 5 8 "related" "HF_orthog" 1 2.7 "bang" 5.467 "LC44" "MPF" 2 "D" 614 "nonword" 150 1 658 "1" NA NA
"bangutto" 32086 "nonword" "banga" "utto" NA NA NA 5 8 "related" "HF_orthog" 1 2.7 "bang" 5.467 "SDC32" "MPF" 2 "D" 532 "nonword" 85 1 716 "1" NA NA
"bangutto" 32086 "nonword" "banga" "utto" NA NA NA 5 8 "related" "HF_orthog" 1 2.7 "bang" 5.467 "AV45" "MPF" 3 "D" 684 "nonword" 100 1 579 "1" NA NA
"bangutto" 32086 "nonword" "banga" "utto" NA NA NA 5 8 "related" "HF_orthog" 1 2.7 "bang" 5.467 "SB35" "MPF" 5 "D" 635 "nonword" 85 1 586 "1" NA NA
