"target" "subjectID" "experimentID" "rotation" "handedness" "trialID" "RT_LD" "Response_LD" "lexicality_LD" "orderIDLD" "accLD" "rtPrecLD" "accPrecLD" "lexicality" "base" "freqbase" "lengthtarget" "condition" "Old20base" "Old20target" "freqcluster" "cluster" "explInterp"
"accordanza" "LC44" "LDF" "2" "D" "2121" 594 "word" "word" 49 1 400 1 "word" "accordo" 4.688 10 "derived" 1 2.55 4.984 "anza" NA
"accordanza" "AR50" "LDF" "2" "D" "2121" 774 "word" "word" 21 1 786 1 "word" "accordo" 4.688 10 "derived" 1 2.55 4.984 "anza" NA
"accordanza" "IF14" "LDF" "2" "D" "2121" 587 "word" "word" 87 1 737 1 "word" "accordo" 4.688 10 "derived" 1 2.55 4.984 "anza" NA
"accordanza" "AF8" "LDF" "2" "D" "2121" 514 "word" "word" 29 1 630 1 "word" "accordo" 4.688 10 "derived" 1 2.55 4.984 "anza" NA
"accordanza" "MC26" "LDF" "2" "D" "2121" 627 "nonword" "word" 77 0 641 1 "word" "accordo" 4.688 10 "derived" 1 2.55 4.984 "anza" NA
"accordanza" "DC2" "LDF" "2" "D" "2121" 629 "word" "word" 58 1 772 1 "word" "accordo" 4.688 10 "derived" 1 2.55 4.984 "anza" NA
"accordanza" "MB38" "LDF" "2" "D" "2121" 870 "word" "word" 29 1 594 0 "word" "accordo" 4.688 10 "derived" 1 2.55 4.984 "anza" NA
"accordanza" "SDC32" "LDF" "2" "D" "2121" 1197 "nonword" "word" 59 0 1100 1 "word" "accordo" 4.688 10 "derived" 1 2.55 4.984 "anza" NA
"accordanza" "FLB20" "LDF" "2" "D" "2121" 413 "word" "word" 21 1 595 1 "word" "accordo" 4.688 10 "derived" 1 2.55 4.984 "anza" NA
"accusoso" "LM21" "LDF" "3" "D" "1171" 895 "nonword" "nonword" 92 1 550 1 "nonword" "accusa" 3.606 8 "pseudoword" 1 2.5 4.911 "oso" -0.03225054251952
"accusoso" "EV51" "LDF" "3" "D" "1171" 1135 "nonword" "nonword" 40 1 1390 0 "nonword" "accusa" 3.606 8 "pseudoword" 1 2.5 4.911 "oso" -0.03225054251952
"accusoso" "CS33" "LDF" "3" "D" "1171" 821 "nonword" "nonword" 92 1 695 1 "nonword" "accusa" 3.606 8 "pseudoword" 1 2.5 4.911 "oso" -0.03225054251952
"accusoso" "MC3" "LDF" "3" "D" "1171" 982 "nonword" "nonword" 40 1 1259 1 "nonword" "accusa" 3.606 8 "pseudoword" 1 2.5 4.911 "oso" -0.03225054251952
"accusoso" "AB9" "LDF" "3" "D" "1171" 684 "nonword" "nonword" 36 1 698 1 "nonword" "accusa" 3.606 8 "pseudoword" 1 2.5 4.911 "oso" -0.03225054251952
"accusoso" "AV45" "LDF" "3" "D" "1171" 813 "nonword" "nonword" 86 1 831 1 "nonword" "accusa" 3.606 8 "pseudoword" 1 2.5 4.911 "oso" -0.03225054251952
"accusoso" "GG27" "LDF" "3" "D" "1171" 947 "nonword" "nonword" 92 1 805 1 "nonword" "accusa" 3.606 8 "pseudoword" 1 2.5 4.911 "oso" -0.03225054251952
"accusoso" "FC39" "LDF" "3" "D" "1171" 908 "nonword" "nonword" 19 1 790 1 "nonword" "accusa" 3.606 8 "pseudoword" 1 2.5 4.911 "oso" -0.03225054251952
"accusoso" "MP15" "LDF" "3" "D" "1171" 573 "nonword" "nonword" 57 1 608 1 "nonword" "accusa" 3.606 8 "pseudoword" 1 2.5 4.911 "oso" -0.03225054251952
"acetame" "MN5" "LDF" "5" "S" "1321" 997 "word" "nonword" 19 0 592 1 "nonword" "aceto" 2.446 7 "pseudoword" 1.1 2.4 4.375 "ame" 0.417904683671462
"acetame" "AC29" "LDF" "5" "D" "1321" 1849 "nonword" "nonword" 32 1 963 1 "nonword" "aceto" 2.446 7 "pseudoword" 1.1 2.4 4.375 "ame" 0.417904683671462
"acetame" "SP17" "LDF" "5" "D" "1321" 745 "nonword" "nonword" 43 1 756 1 "nonword" "aceto" 2.446 7 "pseudoword" 1.1 2.4 4.375 "ame" 0.417904683671462
"acetame" "SS41" "LDF" "5" "D" "1321" 672 "nonword" "nonword" 38 1 688 1 "nonword" "aceto" 2.446 7 "pseudoword" 1.1 2.4 4.375 "ame" 0.417904683671462
"acetame" "AB53" "LDF" "5" "D" "1321" 802 "word" "nonword" 28 0 962 1 "nonword" "aceto" 2.446 7 "pseudoword" 1.1 2.4 4.375 "ame" 0.417904683671462
"acetame" "MT11" "LDF" "5" "S" "1321" 583 "word" "nonword" 54 0 677 1 "nonword" "aceto" 2.446 7 "pseudoword" 1.1 2.4 4.375 "ame" 0.417904683671462
"acetame" "RS56" "LDF" "5" "D" "1321" 646 "word" "nonword" 19 0 662 1 "nonword" "aceto" 2.446 7 "pseudoword" 1.1 2.4 4.375 "ame" 0.417904683671462
"acetame" "SB35" "LDF" "5" "D" "1321" 847 "word" "nonword" 93 0 1130 1 "nonword" "aceto" 2.446 7 "pseudoword" 1.1 2.4 4.375 "ame" 0.417904683671462
"acetame" "GL47" "LDF" "5" "S" "1321" 651 "nonword" "nonword" 19 1 456 1 "nonword" "aceto" 2.446 7 "pseudoword" 1.1 2.4 4.375 "ame" 0.417904683671462
"acetame" "SE23" "LDF" "5" "D" "1321" 978 "word" "nonword" 81 0 1081 0 "nonword" "aceto" 2.446 7 "pseudoword" 1.1 2.4 4.375 "ame" 0.417904683671462
"acidume" "AF8" "LDF" "2" "D" "2112" 565 "word" "word" 63 1 578 1 "word" "acido" 3.063 7 "derived" 1 2.75 4.033 "ume" NA
"acidume" "MB38" "LDF" "2" "D" "2112" 1206 "word" "word" 63 1 896 0 "word" "acido" 3.063 7 "derived" 1 2.75 4.033 "ume" NA
"acidume" "LC44" "LDF" "2" "D" "2112" 775 "word" "word" 43 1 579 1 "word" "acido" 3.063 7 "derived" 1 2.75 4.033 "ume" NA
"acidume" "DC2" "LDF" "2" "D" "2112" 711 "nonword" "word" 49 0 659 0 "word" "acido" 3.063 7 "derived" 1 2.75 4.033 "ume" NA
"acidume" "AR50" "LDF" "2" "D" "2112" 698 "word" "word" 68 1 723 1 "word" "acido" 3.063 7 "derived" 1 2.75 4.033 "ume" NA
"acidume" "SDC32" "LDF" "2" "D" "2112" 797 "word" "word" 67 1 1320 1 "word" "acido" 3.063 7 "derived" 1 2.75 4.033 "ume" NA
"acidume" "FLB20" "LDF" "2" "D" "2112" 595 "word" "word" 68 1 534 1 "word" "acido" 3.063 7 "derived" 1 2.75 4.033 "ume" NA
"acidume" "IF14" "LDF" "2" "D" "2112" 695 "word" "word" 57 1 699 1 "word" "acido" 3.063 7 "derived" 1 2.75 4.033 "ume" NA
"acidume" "MC26" "LDF" "2" "D" "2112" 580 "nonword" "word" 44 0 508 1 "word" "acido" 3.063 7 "derived" 1 2.75 4.033 "ume" NA
"agevole" "DM7" "LDF" "1" "D" "2052" 455 "word" "word" 59 1 811 1 "word" "agio" 3.317 7 "derived" 1 1.85 4.305 "evole" NA
"agevole" "VA49" "LDF" "1" "D" "2052" 508 "word" "word" 81 1 591 1 "word" "agio" 3.317 7 "derived" 1 1.85 4.305 "evole" NA
"agevole" "AG25" "LDF" "1" "D" "2052" 618 "word" "word" 53 1 590 1 "word" "agio" 3.317 7 "derived" 1 1.85 4.305 "evole" NA
"agevole" "GC46" "LDF" "4" "D" "2273" 535 "word" "word" 80 1 894 1 "word" "agio" 3.317 7 "derived" 1 1.85 4.305 "evole" NA
"agevole" "VB10" "LDF" "4" "D" "2273" 564 "word" "word" 89 1 569 1 "word" "agio" 3.317 7 "derived" 1 1.85 4.305 "evole" NA
"agevole" "DS31" "LDF" "1" "D" "2052" 733 "word" "word" 44 1 735 1 "word" "agio" 3.317 7 "derived" 1 1.85 4.305 "evole" NA
"agevole" "CF1" "LDF" "1" "D" "2052" 513 "word" "word" 53 1 621 1 "word" "agio" 3.317 7 "derived" 1 1.85 4.305 "evole" NA
"agevole" "FD55" "LDF" "1" "D" "2052" 515 "word" "word" 70 1 601 1 "word" "agio" 3.317 7 "derived" 1 1.85 4.305 "evole" NA
"agevole" "ACV34" "LDF" "4" "S" "2273" 488 "word" "word" 51 1 469 1 "word" "agio" 3.317 7 "derived" 1 1.85 4.305 "evole" NA
"agevole" "ADC28" "LDF" "4" "D" "2273" 591 "word" "word" 51 1 579 1 "word" "agio" 3.317 7 "derived" 1 1.85 4.305 "evole" NA
"agevole" "AC43" "LDF" "1" "D" "2052" 541 "word" "word" 53 1 780 1 "word" "agio" 3.317 7 "derived" 1 1.85 4.305 "evole" NA
"agevole" "LJ22" "LDF" "4" "D" "2273" 601 "word" "word" 39 1 547 1 "word" "agio" 3.317 7 "derived" 1 1.85 4.305 "evole" NA
"agevole" "MVT19" "LDF" "1" "D" "2052" 578 "word" "word" 70 1 802 1 "word" "agio" 3.317 7 "derived" 1 1.85 4.305 "evole" NA
"agevole" "MC16" "LDF" "4" "D" "2273" 857 "word" "word" 94 1 788 1 "word" "agio" 3.317 7 "derived" 1 1.85 4.305 "evole" NA
"agevole" "EM13" "LDF" "1" "D" "2052" 693 "word" "word" 66 1 774 1 "word" "agio" 3.317 7 "derived" 1 1.85 4.305 "evole" NA
"agevole" "FC52" "LDF" "4" "D" "2273" 641 "word" "word" 39 1 671 1 "word" "agio" 3.317 7 "derived" 1 1.85 4.305 "evole" NA
"agevole" "EP37" "LDF" "1" "D" "2052" 704 "word" "word" 31 1 638 1 "word" "agio" 3.317 7 "derived" 1 1.85 4.305 "evole" NA
"agevole" "GP40" "LDF" "4" "D" "2273" 809 "word" "word" 18 1 552 1 "word" "agio" 3.317 7 "derived" 1 1.85 4.305 "evole" NA
"agevole" "ADB4" "LDF" "4" "D" "2273" 701 "word" "word" 24 1 583 1 "word" "agio" 3.317 7 "derived" 1 1.85 4.305 "evole" NA
"alberoso" "ZF42" "LDF" "6" "D" "1392" 736 "nonword" "nonword" 47 1 821 1 "nonword" "albero" 3.713 8 "pseudoword" 1 2.3 4.911 "oso" 1.51880471283479
"alberoso" "RE24" "LDF" "6" "S" "1392" 894 "word" "nonword" 22 0 668 1 "nonword" "albero" 3.713 8 "pseudoword" 1 2.3 4.911 "oso" 1.51880471283479
"alberoso" "SP12" "LDF" "6" "S" "1392" 656 "nonword" "nonword" 57 1 625 1 "nonword" "albero" 3.713 8 "pseudoword" 1 2.3 4.911 "oso" 1.51880471283479
"alberoso" "GDL30" "LDF" "6" "D" "1392" 1125 "nonword" "nonword" 70 1 815 1 "nonword" "albero" 3.713 8 "pseudoword" 1 2.3 4.911 "oso" 1.51880471283479
"alberoso" "MV48" "LDF" "6" "D" "1392" 1611 "nonword" "nonword" 70 1 510 1 "nonword" "albero" 3.713 8 "pseudoword" 1 2.3 4.911 "oso" 1.51880471283479
"alberoso" "CC6" "LDF" "6" "D" "1392" 697 "nonword" "nonword" 59 1 750 1 "nonword" "albero" 3.713 8 "pseudoword" 1 2.3 4.911 "oso" 1.51880471283479
"alberoso" "AA18" "LDF" "6" "D" "1392" 1158 "nonword" "nonword" 89 1 1186 0 "nonword" "albero" 3.713 8 "pseudoword" 1 2.3 4.911 "oso" 1.51880471283479
"alberoso" "GF54" "LDF" "6" "D" "1392" 806 "word" "nonword" 49 0 765 1 "nonword" "albero" 3.713 8 "pseudoword" 1 2.3 4.911 "oso" 1.51880471283479
"alberoso" "GS36" "LDF" "6" "D" "1392" 792 "word" "nonword" 49 0 516 1 "nonword" "albero" 3.713 8 "pseudoword" 1 2.3 4.911 "oso" 1.51880471283479
"alcolico" "MV48" "LDF" "6" "D" "2419" 647 "word" "word" 95 1 685 1 "word" "alcol" 3.323 8 "derived" 1.2 1.8 5.451 "ico" NA
"alcolico" "SP12" "LDF" "6" "S" "2419" 766 "word" "word" 93 1 990 1 "word" "alcol" 3.323 8 "derived" 1.2 1.8 5.451 "ico" NA
"alcolico" "GS36" "LDF" "6" "D" "2419" 768 "word" "word" 86 1 805 0 "word" "alcol" 3.323 8 "derived" 1.2 1.8 5.451 "ico" NA
"alcolico" "ZF42" "LDF" "6" "D" "2419" 631 "word" "word" 86 1 571 1 "word" "alcol" 3.323 8 "derived" 1.2 1.8 5.451 "ico" NA
"alcolico" "GF54" "LDF" "6" "D" "2419" 460 "word" "word" 86 1 608 1 "word" "alcol" 3.323 8 "derived" 1.2 1.8 5.451 "ico" NA
"alcolico" "GDL30" "LDF" "6" "D" "2419" 940 "word" "word" 95 1 728 1 "word" "alcol" 3.323 8 "derived" 1.2 1.8 5.451 "ico" NA
"alcolico" "AA18" "LDF" "6" "D" "2419" 607 "word" "word" 95 1 802 1 "word" "alcol" 3.323 8 "derived" 1.2 1.8 5.451 "ico" NA
"alcolico" "RE24" "LDF" "6" "S" "2419" 806 "word" "word" 28 1 818 0 "word" "alcol" 3.323 8 "derived" 1.2 1.8 5.451 "ico" NA
"alcolico" "CC6" "LDF" "6" "D" "2419" 615 "word" "word" 73 1 611 1 "word" "alcol" 3.323 8 "derived" 1.2 1.8 5.451 "ico" NA
"alloggimente" "MC3" "LDF" "3" "D" "1174" 1343 "nonword" "nonword" 45 1 955 1 "nonword" "alloggio" 2.894 12 "pseudoword" 1.95 3.5 5.521 "mente" -0.895320400148354
"alloggimente" "EV51" "LDF" "3" "D" "1174" 1074 "nonword" "nonword" 45 1 687 1 "nonword" "alloggio" 2.894 12 "pseudoword" 1.95 3.5 5.521 "mente" -0.895320400148354
"alloggimente" "FC39" "LDF" "3" "D" "1174" 1133 "nonword" "nonword" 84 1 747 1 "nonword" "alloggio" 2.894 12 "pseudoword" 1.95 3.5 5.521 "mente" -0.895320400148354
"alloggimente" "CS33" "LDF" "3" "D" "1174" 848 "nonword" "nonword" 69 1 567 1 "nonword" "alloggio" 2.894 12 "pseudoword" 1.95 3.5 5.521 "mente" -0.895320400148354
"alloggimente" "AB9" "LDF" "3" "D" "1174" 894 "nonword" "nonword" 64 1 632 1 "nonword" "alloggio" 2.894 12 "pseudoword" 1.95 3.5 5.521 "mente" -0.895320400148354
"alloggimente" "GG27" "LDF" "3" "D" "1174" 1963 "nonword" "nonword" 69 1 531 1 "nonword" "alloggio" 2.894 12 "pseudoword" 1.95 3.5 5.521 "mente" -0.895320400148354
"alloggimente" "LM21" "LDF" "3" "D" "1174" 1323 "nonword" "nonword" 69 1 525 1 "nonword" "alloggio" 2.894 12 "pseudoword" 1.95 3.5 5.521 "mente" -0.895320400148354
"alloggimente" "MP15" "LDF" "3" "D" "1174" 771 "nonword" "nonword" 20 1 891 1 "nonword" "alloggio" 2.894 12 "pseudoword" 1.95 3.5 5.521 "mente" -0.895320400148354
"alloggimente" "AV45" "LDF" "3" "D" "1174" 1169 "nonword" "nonword" 34 1 682 1 "nonword" "alloggio" 2.894 12 "pseudoword" 1.95 3.5 5.521 "mente" -0.895320400148354
"amicizia" "CS33" "LDF" "3" "D" "2183" 580 "word" "word" 85 1 582 0 "word" "amico" 4.912 8 "derived" 1 1.35 4.763 "izia" NA
"amicizia" "LM21" "LDF" "3" "D" "2183" 531 "word" "word" 85 1 641 0 "word" "amico" 4.912 8 "derived" 1 1.35 4.763 "izia" NA
"amicizia" "EV51" "LDF" "3" "D" "2183" 852 "word" "word" 24 1 798 1 "word" "amico" 4.912 8 "derived" 1 1.35 4.763 "izia" NA
"amicizia" "AB9" "LDF" "3" "D" "2183" 497 "word" "word" 91 1 677 1 "word" "amico" 4.912 8 "derived" 1 1.35 4.763 "izia" NA
"amicizia" "MN5" "LDF" "5" "S" "2364" 525 "word" "word" 66 1 565 1 "word" "amico" 4.912 8 "derived" 1 1.35 4.763 "izia" NA
"amicizia" "RS56" "LDF" "5" "D" "2364" 465 "word" "word" 66 1 606 1 "word" "amico" 4.912 8 "derived" 1 1.35 4.763 "izia" NA
"amicizia" "MC3" "LDF" "3" "D" "2183" 543 "word" "word" 24 1 953 1 "word" "amico" 4.912 8 "derived" 1 1.35 4.763 "izia" NA
"amicizia" "MT11" "LDF" "5" "S" "2364" 677 "word" "word" 53 1 696 1 "word" "amico" 4.912 8 "derived" 1 1.35 4.763 "izia" NA
"amicizia" "SP17" "LDF" "5" "D" "2364" 794 "word" "word" 53 1 932 1 "word" "amico" 4.912 8 "derived" 1 1.35 4.763 "izia" NA
"amicizia" "MP15" "LDF" "3" "D" "2183" 557 "word" "word" 87 1 834 0 "word" "amico" 4.912 8 "derived" 1 1.35 4.763 "izia" NA
"amicizia" "GL47" "LDF" "5" "S" "2364" 446 "word" "word" 66 1 478 1 "word" "amico" 4.912 8 "derived" 1 1.35 4.763 "izia" NA
"amicizia" "FC39" "LDF" "3" "D" "2183" 514 "word" "word" 75 1 755 0 "word" "amico" 4.912 8 "derived" 1 1.35 4.763 "izia" NA
"amicizia" "AB53" "LDF" "5" "D" "2364" 594 "word" "word" 95 1 766 1 "word" "amico" 4.912 8 "derived" 1 1.35 4.763 "izia" NA
"amicizia" "GG27" "LDF" "3" "D" "2183" 606 "word" "word" 85 1 1318 0 "word" "amico" 4.912 8 "derived" 1 1.35 4.763 "izia" NA
"amicizia" "AV45" "LDF" "3" "D" "2183" 664 "word" "word" 49 1 936 0 "word" "amico" 4.912 8 "derived" 1 1.35 4.763 "izia" NA
"amicizia" "SB35" "LDF" "5" "D" "2364" 1369 "word" "word" 35 1 864 1 "word" "amico" 4.912 8 "derived" 1 1.35 4.763 "izia" NA
"amicizia" "AC29" "LDF" "5" "D" "2364" 826 "word" "word" 87 1 1482 1 "word" "amico" 4.912 8 "derived" 1 1.35 4.763 "izia" NA
"amicizia" "SE23" "LDF" "5" "D" "2364" 618 "word" "word" 54 1 963 1 "word" "amico" 4.912 8 "derived" 1 1.35 4.763 "izia" NA
"amicizia" "SS41" "LDF" "5" "D" "2364" 412 "word" "word" 73 1 565 1 "word" "amico" 4.912 8 "derived" 1 1.35 4.763 "izia" NA
"amuletorio" "FLB20" "LDF" "2" "D" "1088" 687 "nonword" "nonword" 23 1 516 0 "nonword" "amuleto" 2.428 10 "pseudoword" 1.95 3 4.19 "orio" 0.13903004634516
"amuletorio" "AF8" "LDF" "2" "D" "1088" 707 "nonword" "nonword" 25 1 489 1 "nonword" "amuleto" 2.428 10 "pseudoword" 1.95 3 4.19 "orio" 0.13903004634516
"amuletorio" "AR50" "LDF" "2" "D" "1088" 707 "nonword" "nonword" 23 1 609 0 "nonword" "amuleto" 2.428 10 "pseudoword" 1.95 3 4.19 "orio" 0.13903004634516
"amuletorio" "IF14" "LDF" "2" "D" "1088" 950 "word" "nonword" 89 0 963 0 "nonword" "amuleto" 2.428 10 "pseudoword" 1.95 3 4.19 "orio" 0.13903004634516
"amuletorio" "SDC32" "LDF" "2" "D" "1088" 1100 "nonword" "nonword" 58 1 966 1 "nonword" "amuleto" 2.428 10 "pseudoword" 1.95 3 4.19 "orio" 0.13903004634516
"amuletorio" "MC26" "LDF" "2" "D" "1088" 473 "word" "nonword" 75 0 658 1 "nonword" "amuleto" 2.428 10 "pseudoword" 1.95 3 4.19 "orio" 0.13903004634516
"amuletorio" "LC44" "LDF" "2" "D" "1088" 712 "nonword" "nonword" 53 1 619 1 "nonword" "amuleto" 2.428 10 "pseudoword" 1.95 3 4.19 "orio" 0.13903004634516
"amuletorio" "DC2" "LDF" "2" "D" "1088" 772 "nonword" "nonword" 57 1 798 0 "nonword" "amuleto" 2.428 10 "pseudoword" 1.95 3 4.19 "orio" 0.13903004634516
"amuletorio" "MB38" "LDF" "2" "D" "1088" 657 "word" "nonword" 25 0 601 1 "nonword" "amuleto" 2.428 10 "pseudoword" 1.95 3 4.19 "orio" 0.13903004634516
"ancale" "MC16" "LDF" "4" "D" "1255" 699 "nonword" "nonword" 28 1 942 1 "nonword" "anca" 2.525 6 "pseudoword" 1.05 1.7 5.596 "ale" -0.347092892238076
"ancale" "FC52" "LDF" "4" "D" "1255" 684 "nonword" "nonword" 73 1 1168 0 "nonword" "anca" 2.525 6 "pseudoword" 1.05 1.7 5.596 "ale" -0.347092892238076
"ancale" "GC46" "LDF" "4" "D" "1255" 726 "nonword" "nonword" 47 1 599 1 "nonword" "anca" 2.525 6 "pseudoword" 1.05 1.7 5.596 "ale" -0.347092892238076
"ancale" "ACV34" "LDF" "4" "S" "1255" 735 "nonword" "nonword" 46 1 745 1 "nonword" "anca" 2.525 6 "pseudoword" 1.05 1.7 5.596 "ale" -0.347092892238076
"ancale" "VB10" "LDF" "4" "D" "1255" 496 "nonword" "nonword" 25 1 670 1 "nonword" "anca" 2.525 6 "pseudoword" 1.05 1.7 5.596 "ale" -0.347092892238076
"ancale" "GP40" "LDF" "4" "D" "1255" 760 "nonword" "nonword" 32 1 761 1 "nonword" "anca" 2.525 6 "pseudoword" 1.05 1.7 5.596 "ale" -0.347092892238076
"ancale" "ADC28" "LDF" "4" "D" "1255" 524 "nonword" "nonword" 46 1 682 1 "nonword" "anca" 2.525 6 "pseudoword" 1.05 1.7 5.596 "ale" -0.347092892238076
"ancale" "LJ22" "LDF" "4" "D" "1255" 692 "nonword" "nonword" 73 1 734 0 "nonword" "anca" 2.525 6 "pseudoword" 1.05 1.7 5.596 "ale" -0.347092892238076
"ancale" "ADB4" "LDF" "4" "D" "1255" 947 "nonword" "nonword" 57 1 1232 1 "nonword" "anca" 2.525 6 "pseudoword" 1.05 1.7 5.596 "ale" -0.347092892238076
"anguria" "FLB20" "LDF" "2" "D" "3131" 536 "word" "word" 48 1 754 1 "word" "anguria" 2.057 7 "simple" 1.95 1.95 NA NA NA
"anguria" "FC52" "LDF" "4" "D" "3287" 685 "word" "word" 48 1 1445 0 "word" "anguria" 2.057 7 "simple" 1.95 1.95 NA NA NA
"anguria" "MC16" "LDF" "4" "D" "3287" 663 "word" "word" 57 1 1068 1 "word" "anguria" 2.057 7 "simple" 1.95 1.95 NA NA NA
"anguria" "MP15" "LDF" "3" "D" "3209" 569 "word" "word" 69 1 744 1 "word" "anguria" 2.057 7 "simple" 1.95 1.95 NA NA NA
"anguria" "GP40" "LDF" "4" "D" "3287" 622 "word" "word" 50 1 635 1 "word" "anguria" 2.057 7 "simple" 1.95 1.95 NA NA NA
"anguria" "MC26" "LDF" "2" "D" "3131" 402 "word" "word" 66 1 618 1 "word" "anguria" 2.057 7 "simple" 1.95 1.95 NA NA NA
"anguria" "GDL30" "LDF" "6" "D" "3443" 815 "word" "word" 69 1 861 1 "word" "anguria" 2.057 7 "simple" 1.95 1.95 NA NA NA
"anguria" "SB35" "LDF" "5" "D" "3365" 918 "word" "word" 32 1 979 1 "word" "anguria" 2.057 7 "simple" 1.95 1.95 NA NA NA
"anguria" "AR50" "LDF" "2" "D" "3131" 653 "word" "word" 48 1 767 1 "word" "anguria" 2.057 7 "simple" 1.95 1.95 NA NA NA
"anguria" "DS31" "LDF" "1" "D" "3053" 544 "word" "word" 42 1 605 1 "word" "anguria" 2.057 7 "simple" 1.95 1.95 NA NA NA
"anguria" "VB10" "LDF" "4" "D" "3287" 524 "word" "word" 41 1 1224 1 "word" "anguria" 2.057 7 "simple" 1.95 1.95 NA NA NA
"anguria" "MT11" "LDF" "5" "S" "3365" 720 "word" "word" 51 1 794 1 "word" "anguria" 2.057 7 "simple" 1.95 1.95 NA NA NA
"anguria" "RE24" "LDF" "6" "S" "3443" 675 "word" "word" 18 1 457 1 "word" "anguria" 2.057 7 "simple" 1.95 1.95 NA NA NA
"anguria" "SP12" "LDF" "6" "S" "3443" 527 "word" "word" 58 1 656 1 "word" "anguria" 2.057 7 "simple" 1.95 1.95 NA NA NA
"anguria" "DM7" "LDF" "1" "D" "3053" 605 "word" "word" 57 1 1212 1 "word" "anguria" 2.057 7 "simple" 1.95 1.95 NA NA NA
"anguria" "FC39" "LDF" "3" "D" "3209" 699 "word" "word" 57 1 1350 1 "word" "anguria" 2.057 7 "simple" 1.95 1.95 NA NA NA
"anguria" "SP17" "LDF" "5" "D" "3365" 1010 "word" "word" 48 1 928 1 "word" "anguria" 2.057 7 "simple" 1.95 1.95 NA NA NA
"anguria" "SS41" "LDF" "5" "D" "3365" 565 "word" "word" 72 1 519 1 "word" "anguria" 2.057 7 "simple" 1.95 1.95 NA NA NA
"anguria" "MN5" "LDF" "5" "S" "3365" 563 "word" "word" 69 1 980 1 "word" "anguria" 2.057 7 "simple" 1.95 1.95 NA NA NA
"anguria" "MC3" "LDF" "3" "D" "3209" 637 "word" "word" 66 1 742 1 "word" "anguria" 2.057 7 "simple" 1.95 1.95 NA NA NA
"anguria" "VA49" "LDF" "1" "D" "3053" 472 "word" "word" 79 1 644 1 "word" "anguria" 2.057 7 "simple" 1.95 1.95 NA NA NA
"anguria" "ADC28" "LDF" "4" "D" "3287" 572 "word" "word" 69 1 602 1 "word" "anguria" 2.057 7 "simple" 1.95 1.95 NA NA NA
"anguria" "AC43" "LDF" "1" "D" "3053" 598 "word" "word" 48 1 967 1 "word" "anguria" 2.057 7 "simple" 1.95 1.95 NA NA NA
"anguria" "MV48" "LDF" "6" "D" "3443" 510 "word" "word" 69 1 654 1 "word" "anguria" 2.057 7 "simple" 1.95 1.95 NA NA NA
"anguria" "GL47" "LDF" "5" "S" "3365" 509 "word" "word" 69 1 663 1 "word" "anguria" 2.057 7 "simple" 1.95 1.95 NA NA NA
"anguria" "AB9" "LDF" "3" "D" "3209" 512 "word" "word" 85 1 668 1 "word" "anguria" 2.057 7 "simple" 1.95 1.95 NA NA NA
"anguria" "GC46" "LDF" "4" "D" "3287" 709 "word" "word" 95 1 845 1 "word" "anguria" 2.057 7 "simple" 1.95 1.95 NA NA NA
"anguria" "AB53" "LDF" "5" "D" "3365" 766 "word" "word" 94 1 1455 1 "word" "anguria" 2.057 7 "simple" 1.95 1.95 NA NA NA
"anguria" "AG25" "LDF" "1" "D" "3053" 528 "word" "word" 48 1 846 1 "word" "anguria" 2.057 7 "simple" 1.95 1.95 NA NA NA
"anguria" "EM13" "LDF" "1" "D" "3053" 476 "word" "word" 69 1 673 1 "word" "anguria" 2.057 7 "simple" 1.95 1.95 NA NA NA
"anguria" "DC2" "LDF" "2" "D" "3131" 638 "word" "word" 27 1 619 1 "word" "anguria" 2.057 7 "simple" 1.95 1.95 NA NA NA
"anguria" "LM21" "LDF" "3" "D" "3209" 523 "word" "word" 48 1 868 1 "word" "anguria" 2.057 7 "simple" 1.95 1.95 NA NA NA
"anguria" "GF54" "LDF" "6" "D" "3443" 765 "word" "word" 48 1 579 1 "word" "anguria" 2.057 7 "simple" 1.95 1.95 NA NA NA
"anguria" "CF1" "LDF" "1" "D" "3053" 419 "word" "word" 48 1 744 1 "word" "anguria" 2.057 7 "simple" 1.95 1.95 NA NA NA
"anguria" "MB38" "LDF" "2" "D" "3131" 597 "word" "word" 85 1 786 1 "word" "anguria" 2.057 7 "simple" 1.95 1.95 NA NA NA
"anguria" "EV51" "LDF" "3" "D" "3209" 613 "word" "word" 66 1 978 1 "word" "anguria" 2.057 7 "simple" 1.95 1.95 NA NA NA
"anguria" "GS36" "LDF" "6" "D" "3443" 516 "word" "word" 48 1 757 1 "word" "anguria" 2.057 7 "simple" 1.95 1.95 NA NA NA
"anguria" "AV45" "LDF" "3" "D" "3209" 728 "word" "word" 95 1 764 1 "word" "anguria" 2.057 7 "simple" 1.95 1.95 NA NA NA
"anguria" "SDC32" "LDF" "2" "D" "3131" 508 "word" "word" 81 1 862 1 "word" "anguria" 2.057 7 "simple" 1.95 1.95 NA NA NA
"anguria" "EP37" "LDF" "1" "D" "3053" 727 "word" "word" 33 1 1073 1 "word" "anguria" 2.057 7 "simple" 1.95 1.95 NA NA NA
"anguria" "ADB4" "LDF" "4" "D" "3287" 905 "word" "word" 85 1 941 1 "word" "anguria" 2.057 7 "simple" 1.95 1.95 NA NA NA
"anguria" "AC29" "LDF" "5" "D" "3365" 756 "word" "word" 85 1 976 1 "word" "anguria" 2.057 7 "simple" 1.95 1.95 NA NA NA
"anguria" "SE23" "LDF" "5" "D" "3365" 1006 "word" "word" 57 1 1575 0 "word" "anguria" 2.057 7 "simple" 1.95 1.95 NA NA NA
"anguria" "FD55" "LDF" "1" "D" "3053" 518 "word" "word" 66 1 734 1 "word" "anguria" 2.057 7 "simple" 1.95 1.95 NA NA NA
"anguria" "LJ22" "LDF" "4" "D" "3287" 583 "word" "word" 48 1 758 1 "word" "anguria" 2.057 7 "simple" 1.95 1.95 NA NA NA
"anguria" "MVT19" "LDF" "1" "D" "3053" 781 "word" "word" 66 1 1003 1 "word" "anguria" 2.057 7 "simple" 1.95 1.95 NA NA NA
"anguria" "ZF42" "LDF" "6" "D" "3443" 569 "nonword" "word" 45 0 601 1 "word" "anguria" 2.057 7 "simple" 1.95 1.95 NA NA NA
"anguria" "CC6" "LDF" "6" "D" "3443" 632 "word" "word" 57 1 602 1 "word" "anguria" 2.057 7 "simple" 1.95 1.95 NA NA NA
"anguria" "LC44" "LDF" "2" "D" "3131" 464 "word" "word" 75 1 807 0 "word" "anguria" 2.057 7 "simple" 1.95 1.95 NA NA NA
"anguria" "GG27" "LDF" "3" "D" "3209" 673 "word" "word" 48 1 861 1 "word" "anguria" 2.057 7 "simple" 1.95 1.95 NA NA NA
"anguria" "AA18" "LDF" "6" "D" "3443" 627 "word" "word" 85 1 898 1 "word" "anguria" 2.057 7 "simple" 1.95 1.95 NA NA NA
"anguria" "CS33" "LDF" "3" "D" "3209" 621 "word" "word" 48 1 716 1 "word" "anguria" 2.057 7 "simple" 1.95 1.95 NA NA NA
"anguria" "RS56" "LDF" "5" "D" "3365" 553 "word" "word" 69 1 719 1 "word" "anguria" 2.057 7 "simple" 1.95 1.95 NA NA NA
"anguria" "AF8" "LDF" "2" "D" "3131" 543 "word" "word" 85 1 627 1 "word" "anguria" 2.057 7 "simple" 1.95 1.95 NA NA NA
"anguria" "IF14" "LDF" "2" "D" "3131" 503 "word" "word" 94 1 611 1 "word" "anguria" 2.057 7 "simple" 1.95 1.95 NA NA NA
"anguria" "ACV34" "LDF" "4" "S" "3287" 624 "word" "word" 69 1 745 1 "word" "anguria" 2.057 7 "simple" 1.95 1.95 NA NA NA
"appendice" "MVT19" "LDF" "1" "D" "3058" 1020 "word" "word" 23 1 1182 1 "word" "appendice" 2.354 9 "simple" 1.65 1.65 NA NA NA
"appendice" "MC3" "LDF" "3" "D" "3214" 953 "word" "word" 23 1 791 1 "word" "appendice" 2.354 9 "simple" 1.65 1.65 NA NA NA
"appendice" "GF54" "LDF" "6" "D" "3448" 571 "word" "word" 57 1 569 0 "word" "appendice" 2.354 9 "simple" 1.65 1.65 NA NA NA
"appendice" "DM7" "LDF" "1" "D" "3058" 645 "word" "word" 35 1 506 1 "word" "appendice" 2.354 9 "simple" 1.65 1.65 NA NA NA
"appendice" "AR50" "LDF" "2" "D" "3136" 604 "word" "word" 57 1 810 1 "word" "appendice" 2.354 9 "simple" 1.65 1.65 NA NA NA
"appendice" "CF1" "LDF" "1" "D" "3058" 554 "word" "word" 57 1 425 0 "word" "appendice" 2.354 9 "simple" 1.65 1.65 NA NA NA
"appendice" "SP17" "LDF" "5" "D" "3370" 865 "word" "word" 57 1 978 1 "word" "appendice" 2.354 9 "simple" 1.65 1.65 NA NA NA
"appendice" "IF14" "LDF" "2" "D" "3136" 573 "word" "word" 22 1 569 1 "word" "appendice" 2.354 9 "simple" 1.65 1.65 NA NA NA
"appendice" "FC39" "LDF" "3" "D" "3214" 579 "word" "word" 53 1 710 1 "word" "appendice" 2.354 9 "simple" 1.65 1.65 NA NA NA
"appendice" "AA18" "LDF" "6" "D" "3448" 588 "word" "word" 20 1 627 1 "word" "appendice" 2.354 9 "simple" 1.65 1.65 NA NA NA
"appendice" "MC26" "LDF" "2" "D" "3136" 627 "word" "word" 23 1 684 1 "word" "appendice" 2.354 9 "simple" 1.65 1.65 NA NA NA
"appendice" "DC2" "LDF" "2" "D" "3136" 706 "word" "word" 37 1 527 1 "word" "appendice" 2.354 9 "simple" 1.65 1.65 NA NA NA
"appendice" "RS56" "LDF" "5" "D" "3370" 684 "word" "word" 30 1 494 1 "word" "appendice" 2.354 9 "simple" 1.65 1.65 NA NA NA
"appendice" "MB38" "LDF" "2" "D" "3136" 760 "word" "word" 20 1 634 1 "word" "appendice" 2.354 9 "simple" 1.65 1.65 NA NA NA
"appendice" "LM21" "LDF" "3" "D" "3214" 572 "word" "word" 57 1 574 0 "word" "appendice" 2.354 9 "simple" 1.65 1.65 NA NA NA
"appendice" "SP12" "LDF" "6" "S" "3448" 644 "word" "word" 49 1 821 1 "word" "appendice" 2.354 9 "simple" 1.65 1.65 NA NA NA
"appendice" "ZF42" "LDF" "6" "D" "3448" 704 "word" "word" 52 1 638 1 "word" "appendice" 2.354 9 "simple" 1.65 1.65 NA NA NA
"appendice" "AG25" "LDF" "1" "D" "3058" 532 "word" "word" 57 1 509 0 "word" "appendice" 2.354 9 "simple" 1.65 1.65 NA NA NA
"appendice" "AV45" "LDF" "3" "D" "3214" 625 "word" "word" 19 1 791 0 "word" "appendice" 2.354 9 "simple" 1.65 1.65 NA NA NA
"appendice" "LC44" "LDF" "2" "D" "3136" 506 "word" "word" 35 1 524 1 "word" "appendice" 2.354 9 "simple" 1.65 1.65 NA NA NA
"appendice" "ACV34" "LDF" "4" "S" "3292" 537 "word" "word" 30 1 802 1 "word" "appendice" 2.354 9 "simple" 1.65 1.65 NA NA NA
"appendice" "GP40" "LDF" "4" "D" "3292" 617 "word" "word" 60 1 657 0 "word" "appendice" 2.354 9 "simple" 1.65 1.65 NA NA NA
"appendice" "ADC28" "LDF" "4" "D" "3292" 448 "word" "word" 30 1 519 1 "word" "appendice" 2.354 9 "simple" 1.65 1.65 NA NA NA
"appendice" "GL47" "LDF" "5" "S" "3370" 486 "word" "word" 30 1 633 1 "word" "appendice" 2.354 9 "simple" 1.65 1.65 NA NA NA
"appendice" "ADB4" "LDF" "4" "D" "3292" 976 "word" "word" 50 1 1392 1 "word" "appendice" 2.354 9 "simple" 1.65 1.65 NA NA NA
"appendice" "SB35" "LDF" "5" "D" "3370" 620 "word" "word" 23 1 1162 1 "word" "appendice" 2.354 9 "simple" 1.65 1.65 NA NA NA
"appendice" "SS41" "LDF" "5" "D" "3370" 466 "word" "word" 43 1 488 1 "word" "appendice" 2.354 9 "simple" 1.65 1.65 NA NA NA
"appendice" "AC43" "LDF" "1" "D" "3058" 714 "word" "word" 57 1 997 1 "word" "appendice" 2.354 9 "simple" 1.65 1.65 NA NA NA
"appendice" "LJ22" "LDF" "4" "D" "3292" 620 "word" "word" 57 1 710 1 "word" "appendice" 2.354 9 "simple" 1.65 1.65 NA NA NA
"appendice" "GG27" "LDF" "3" "D" "3214" 809 "word" "word" 57 1 1155 1 "word" "appendice" 2.354 9 "simple" 1.65 1.65 NA NA NA
"appendice" "MT11" "LDF" "5" "S" "3370" 784 "word" "word" 77 1 771 1 "word" "appendice" 2.354 9 "simple" 1.65 1.65 NA NA NA
"appendice" "AB9" "LDF" "3" "D" "3214" 663 "word" "word" 20 1 1061 1 "word" "appendice" 2.354 9 "simple" 1.65 1.65 NA NA NA
"appendice" "FD55" "LDF" "1" "D" "3058" 627 "word" "word" 23 1 659 1 "word" "appendice" 2.354 9 "simple" 1.65 1.65 NA NA NA
"appendice" "VA49" "LDF" "1" "D" "3058" 660 "word" "word" 94 1 542 1 "word" "appendice" 2.354 9 "simple" 1.65 1.65 NA NA NA
"appendice" "EM13" "LDF" "1" "D" "3058" 609 "word" "word" 30 1 1099 1 "word" "appendice" 2.354 9 "simple" 1.65 1.65 NA NA NA
"appendice" "AC29" "LDF" "5" "D" "3370" 765 "word" "word" 20 1 1017 1 "word" "appendice" 2.354 9 "simple" 1.65 1.65 NA NA NA
"appendice" "FLB20" "LDF" "2" "D" "3136" 586 "word" "word" 57 1 501 0 "word" "appendice" 2.354 9 "simple" 1.65 1.65 NA NA NA
"appendice" "AB53" "LDF" "5" "D" "3370" 611 "word" "word" 22 1 1345 1 "word" "appendice" 2.354 9 "simple" 1.65 1.65 NA NA NA
"appendice" "MC16" "LDF" "4" "D" "3292" 685 "word" "word" 53 1 620 1 "word" "appendice" 2.354 9 "simple" 1.65 1.65 NA NA NA
"appendice" "DS31" "LDF" "1" "D" "3058" 706 "word" "word" 83 1 722 1 "word" "appendice" 2.354 9 "simple" 1.65 1.65 NA NA NA
"appendice" "CS33" "LDF" "3" "D" "3214" 745 "word" "word" 57 1 610 0 "word" "appendice" 2.354 9 "simple" 1.65 1.65 NA NA NA
"appendice" "CC6" "LDF" "6" "D" "3448" 564 "word" "word" 53 1 477 1 "word" "appendice" 2.354 9 "simple" 1.65 1.65 NA NA NA
"appendice" "GS36" "LDF" "6" "D" "3448" 700 "word" "word" 57 1 777 1 "word" "appendice" 2.354 9 "simple" 1.65 1.65 NA NA NA
"appendice" "GDL30" "LDF" "6" "D" "3448" 608 "word" "word" 30 1 1176 1 "word" "appendice" 2.354 9 "simple" 1.65 1.65 NA NA NA
"appendice" "EV51" "LDF" "3" "D" "3214" 798 "word" "word" 23 1 880 1 "word" "appendice" 2.354 9 "simple" 1.65 1.65 NA NA NA
"appendice" "EP37" "LDF" "1" "D" "3058" 759 "word" "word" 38 1 650 1 "word" "appendice" 2.354 9 "simple" 1.65 1.65 NA NA NA
"appendice" "RE24" "LDF" "6" "S" "3448" 718 "word" "word" 71 1 1428 1 "word" "appendice" 2.354 9 "simple" 1.65 1.65 NA NA NA
"appendice" "SE23" "LDF" "5" "D" "3370" 963 "word" "word" 53 1 1083 1 "word" "appendice" 2.354 9 "simple" 1.65 1.65 NA NA NA
"appendice" "AF8" "LDF" "2" "D" "3136" 528 "word" "word" 20 1 644 1 "word" "appendice" 2.354 9 "simple" 1.65 1.65 NA NA NA
"appendice" "SDC32" "LDF" "2" "D" "3136" 1133 "word" "word" 23 1 789 1 "word" "appendice" 2.354 9 "simple" 1.65 1.65 NA NA NA
"appendice" "FC52" "LDF" "4" "D" "3292" 677 "word" "word" 57 1 1015 1 "word" "appendice" 2.354 9 "simple" 1.65 1.65 NA NA NA
"appendice" "MP15" "LDF" "3" "D" "3214" 770 "word" "word" 43 1 781 1 "word" "appendice" 2.354 9 "simple" 1.65 1.65 NA NA NA
"appendice" "GC46" "LDF" "4" "D" "3292" 529 "word" "word" 19 1 812 1 "word" "appendice" 2.354 9 "simple" 1.65 1.65 NA NA NA
"appendice" "MV48" "LDF" "6" "D" "3448" 679 "word" "word" 30 1 1054 1 "word" "appendice" 2.354 9 "simple" 1.65 1.65 NA NA NA
"appendice" "MN5" "LDF" "5" "S" "3370" 533 "word" "word" 30 1 738 1 "word" "appendice" 2.354 9 "simple" 1.65 1.65 NA NA NA
"appendice" "VB10" "LDF" "4" "D" "3292" 579 "word" "word" 83 1 581 1 "word" "appendice" 2.354 9 "simple" 1.65 1.65 NA NA NA
"arbicocca" "LJ22" "LDF" "4" "D" "4310" 823 "nonword" "nonword" 32 1 604 0 "nonword" NA NA 9 "simple" NA 3.05 NA NA NA
"arbicocca" "MC16" "LDF" "4" "D" "4310" 1220 "nonword" "nonword" 42 1 825 1 "nonword" NA NA 9 "simple" NA 3.05 NA NA NA
"arbicocca" "AG25" "LDF" "1" "D" "4076" 636 "nonword" "nonword" 32 1 650 1 "nonword" NA NA 9 "simple" NA 3.05 NA NA NA
"arbicocca" "IF14" "LDF" "2" "D" "4154" 834 "nonword" "nonword" 62 1 632 1 "nonword" NA NA 9 "simple" NA 3.05 NA NA NA
"arbicocca" "EM13" "LDF" "1" "D" "4076" 903 "nonword" "nonword" 39 1 706 1 "nonword" NA NA 9 "simple" NA 3.05 NA NA NA
"arbicocca" "CS33" "LDF" "3" "D" "4232" 853 "nonword" "nonword" 32 1 657 1 "nonword" NA NA 9 "simple" NA 3.05 NA NA NA
"arbicocca" "FC52" "LDF" "4" "D" "4310" 1021 "nonword" "nonword" 32 1 1049 1 "nonword" NA NA 9 "simple" NA 3.05 NA NA NA
"arbicocca" "AR50" "LDF" "2" "D" "4154" 831 "nonword" "nonword" 32 1 773 1 "nonword" NA NA 9 "simple" NA 3.05 NA NA NA
"arbicocca" "RS56" "LDF" "5" "D" "4388" 854 "nonword" "nonword" 39 1 659 1 "nonword" NA NA 9 "simple" NA 3.05 NA NA NA
"arbicocca" "ZF42" "LDF" "6" "D" "4466" 533 "word" "nonword" 59 0 526 1 "nonword" NA NA 9 "simple" NA 3.05 NA NA NA
"arbicocca" "LM21" "LDF" "3" "D" "4232" 938 "nonword" "nonword" 32 1 816 1 "nonword" NA NA 9 "simple" NA 3.05 NA NA NA
"arbicocca" "SS41" "LDF" "5" "D" "4388" 624 "nonword" "nonword" 23 1 618 1 "nonword" NA NA 9 "simple" NA 3.05 NA NA NA
"arbicocca" "ADB4" "LDF" "4" "D" "4310" 1324 "nonword" "nonword" 43 1 884 1 "nonword" NA NA 9 "simple" NA 3.05 NA NA NA
"arbicocca" "AV45" "LDF" "3" "D" "4232" 782 "nonword" "nonword" 61 1 797 1 "nonword" NA NA 9 "simple" NA 3.05 NA NA NA
"arbicocca" "DM7" "LDF" "1" "D" "4076" 830 "nonword" "nonword" 45 1 800 1 "nonword" NA NA 9 "simple" NA 3.05 NA NA NA
"arbicocca" "LC44" "LDF" "2" "D" "4154" 415 "word" "nonword" 64 0 446 1 "nonword" NA NA 9 "simple" NA 3.05 NA NA NA
"arbicocca" "SP17" "LDF" "5" "D" "4388" 887 "nonword" "nonword" 32 1 1016 1 "nonword" NA NA 9 "simple" NA 3.05 NA NA NA
"arbicocca" "SDC32" "LDF" "2" "D" "4154" 815 "nonword" "nonword" 89 1 802 0 "nonword" NA NA 9 "simple" NA 3.05 NA NA NA
"arbicocca" "MT11" "LDF" "5" "S" "4388" 859 "nonword" "nonword" 65 1 694 1 "nonword" NA NA 9 "simple" NA 3.05 NA NA NA
"arbicocca" "CC6" "LDF" "6" "D" "4466" 532 "word" "nonword" 42 0 819 1 "nonword" NA NA 9 "simple" NA 3.05 NA NA NA
"arbicocca" "VA49" "LDF" "1" "D" "4076" 738 "nonword" "nonword" 46 1 519 1 "nonword" NA NA 9 "simple" NA 3.05 NA NA NA
"arbicocca" "FD55" "LDF" "1" "D" "4076" 727 "nonword" "nonword" 52 1 813 1 "nonword" NA NA 9 "simple" NA 3.05 NA NA NA
"arbicocca" "MN5" "LDF" "5" "S" "4388" 851 "nonword" "nonword" 39 1 898 1 "nonword" NA NA 9 "simple" NA 3.05 NA NA NA
"arbicocca" "MB38" "LDF" "2" "D" "4154" 912 "nonword" "nonword" 59 1 614 1 "nonword" NA NA 9 "simple" NA 3.05 NA NA NA
"arbicocca" "GL47" "LDF" "5" "S" "4388" 701 "nonword" "nonword" 39 1 539 1 "nonword" NA NA 9 "simple" NA 3.05 NA NA NA
"arbicocca" "ACV34" "LDF" "4" "S" "4310" 752 "nonword" "nonword" 39 1 659 1 "nonword" NA NA 9 "simple" NA 3.05 NA NA NA
"arbicocca" "GG27" "LDF" "3" "D" "4232" 1042 "nonword" "nonword" 32 1 1281 1 "nonword" NA NA 9 "simple" NA 3.05 NA NA NA
"arbicocca" "AB9" "LDF" "3" "D" "4232" 582 "nonword" "nonword" 59 1 652 1 "nonword" NA NA 9 "simple" NA 3.05 NA NA NA
"arbicocca" "RE24" "LDF" "6" "S" "4466" 946 "nonword" "nonword" 73 1 932 1 "nonword" NA NA 9 "simple" NA 3.05 NA NA NA
"arbicocca" "MVT19" "LDF" "1" "D" "4076" 1155 "nonword" "nonword" 52 1 1280 1 "nonword" NA NA 9 "simple" NA 3.05 NA NA NA
"arbicocca" "SE23" "LDF" "5" "D" "4388" 997 "nonword" "nonword" 42 1 1484 1 "nonword" NA NA 9 "simple" NA 3.05 NA NA NA
"arbicocca" "FLB20" "LDF" "2" "D" "4154" 684 "nonword" "nonword" 32 1 531 1 "nonword" NA NA 9 "simple" NA 3.05 NA NA NA
"arbicocca" "GC46" "LDF" "4" "D" "4310" 829 "nonword" "nonword" 61 1 704 1 "nonword" NA NA 9 "simple" NA 3.05 NA NA NA
"arbicocca" "DS31" "LDF" "1" "D" "4076" 765 "nonword" "nonword" 39 1 638 1 "nonword" NA NA 9 "simple" NA 3.05 NA NA NA
"arbicocca" "GP40" "LDF" "4" "D" "4310" 927 "nonword" "nonword" 71 1 542 1 "nonword" NA NA 9 "simple" NA 3.05 NA NA NA
"arbicocca" "MC3" "LDF" "3" "D" "4232" 968 "nonword" "nonword" 52 1 850 1 "nonword" NA NA 9 "simple" NA 3.05 NA NA NA
"arbicocca" "GS36" "LDF" "6" "D" "4466" 732 "nonword" "nonword" 32 1 783 1 "nonword" NA NA 9 "simple" NA 3.05 NA NA NA
"arbicocca" "CF1" "LDF" "1" "D" "4076" 429 "word" "nonword" 32 0 546 1 "nonword" NA NA 9 "simple" NA 3.05 NA NA NA
"arbicocca" "SP12" "LDF" "6" "S" "4466" 752 "nonword" "nonword" 84 1 542 1 "nonword" NA NA 9 "simple" NA 3.05 NA NA NA
"arbicocca" "MP15" "LDF" "3" "D" "4232" 964 "nonword" "nonword" 35 1 724 1 "nonword" NA NA 9 "simple" NA 3.05 NA NA NA
"arbicocca" "GDL30" "LDF" "6" "D" "4466" 1195 "nonword" "nonword" 39 1 858 1 "nonword" NA NA 9 "simple" NA 3.05 NA NA NA
"arbicocca" "EV51" "LDF" "3" "D" "4232" 888 "nonword" "nonword" 52 1 976 1 "nonword" NA NA 9 "simple" NA 3.05 NA NA NA
"arbicocca" "ADC28" "LDF" "4" "D" "4310" 630 "nonword" "nonword" 39 1 503 1 "nonword" NA NA 9 "simple" NA 3.05 NA NA NA
"arbicocca" "AA18" "LDF" "6" "D" "4466" 1067 "nonword" "nonword" 59 1 611 1 "nonword" NA NA 9 "simple" NA 3.05 NA NA NA
"arbicocca" "DC2" "LDF" "2" "D" "4154" 928 "nonword" "nonword" 72 1 1467 1 "nonword" NA NA 9 "simple" NA 3.05 NA NA NA
"arbicocca" "VB10" "LDF" "4" "D" "4310" 684 "word" "nonword" 68 0 608 1 "nonword" NA NA 9 "simple" NA 3.05 NA NA NA
"arbicocca" "AC43" "LDF" "1" "D" "4076" 845 "nonword" "nonword" 32 1 793 1 "nonword" NA NA 9 "simple" NA 3.05 NA NA NA
"arbicocca" "SB35" "LDF" "5" "D" "4388" 1031 "nonword" "nonword" 38 1 1103 1 "nonword" NA NA 9 "simple" NA 3.05 NA NA NA
"arbicocca" "GF54" "LDF" "6" "D" "4466" 638 "nonword" "nonword" 32 1 657 1 "nonword" NA NA 9 "simple" NA 3.05 NA NA NA
"arbicocca" "AC29" "LDF" "5" "D" "4388" 893 "nonword" "nonword" 59 1 650 1 "nonword" NA NA 9 "simple" NA 3.05 NA NA NA
"arbicocca" "MV48" "LDF" "6" "D" "4466" 864 "nonword" "nonword" 39 1 693 1 "nonword" NA NA 9 "simple" NA 3.05 NA NA NA
"arbicocca" "EP37" "LDF" "1" "D" "4076" 1173 "nonword" "nonword" 71 1 1239 1 "nonword" NA NA 9 "simple" NA 3.05 NA NA NA
"arbicocca" "FC39" "LDF" "3" "D" "4232" 818 "word" "nonword" 42 0 912 1 "nonword" NA NA 9 "simple" NA 3.05 NA NA NA
"arbicocca" "AB53" "LDF" "5" "D" "4388" 1152 "nonword" "nonword" 62 1 762 1 "nonword" NA NA 9 "simple" NA 3.05 NA NA NA
"arbicocca" "MC26" "LDF" "2" "D" "4154" 401 "word" "nonword" 52 0 607 1 "nonword" NA NA 9 "simple" NA 3.05 NA NA NA
"arbicocca" "AF8" "LDF" "2" "D" "4154" 792 "nonword" "nonword" 59 1 562 1 "nonword" NA NA 9 "simple" NA 3.05 NA NA NA
"arciere" "GS36" "LDF" "6" "D" "2425" 502 "word" "word" 67 1 749 1 "word" "arco" 2.984 7 "derived" 1 1.85 4.665 "iere" NA
"arciere" "RE24" "LDF" "6" "S" "2425" 732 "word" "word" 31 1 1419 0 "word" "arco" 2.984 7 "derived" 1 1.85 4.665 "iere" NA
"arciere" "ZF42" "LDF" "6" "D" "2425" 656 "word" "word" 95 1 375 1 "word" "arco" 2.984 7 "derived" 1 1.85 4.665 "iere" NA
"arciere" "MV48" "LDF" "6" "D" "2425" 928 "word" "word" 28 1 908 1 "word" "arco" 2.984 7 "derived" 1 1.85 4.665 "iere" NA
"arciere" "AA18" "LDF" "6" "D" "2425" 763 "word" "word" 62 1 971 1 "word" "arco" 2.984 7 "derived" 1 1.85 4.665 "iere" NA
"arciere" "GDL30" "LDF" "6" "D" "2425" 642 "word" "word" 28 1 808 1 "word" "arco" 2.984 7 "derived" 1 1.85 4.665 "iere" NA
"arciere" "CC6" "LDF" "6" "D" "2425" 699 "word" "word" 85 1 1008 1 "word" "arco" 2.984 7 "derived" 1 1.85 4.665 "iere" NA
"arciere" "SP12" "LDF" "6" "S" "2425" 636 "word" "word" 77 1 927 0 "word" "arco" 2.984 7 "derived" 1 1.85 4.665 "iere" NA
"arciere" "GF54" "LDF" "6" "D" "2425" 585 "word" "word" 67 1 782 1 "word" "arco" 2.984 7 "derived" 1 1.85 4.665 "iere" NA
"asfaltorio" "GL47" "LDF" "5" "S" "1335" 713 "word" "nonword" 45 0 695 1 "nonword" "asfalto" 2.425 10 "pseudoword" 1.95 3.3 4.19 "orio" 0.361361599061873
"asfaltorio" "MN5" "LDF" "5" "S" "1335" 1041 "nonword" "nonword" 45 1 808 1 "nonword" "asfalto" 2.425 10 "pseudoword" 1.95 3.3 4.19 "orio" 0.361361599061873
"asfaltorio" "AC29" "LDF" "5" "D" "1335" 1274 "nonword" "nonword" 79 1 1261 1 "nonword" "asfalto" 2.425 10 "pseudoword" 1.95 3.3 4.19 "orio" 0.361361599061873
"asfaltorio" "RS56" "LDF" "5" "D" "1335" 611 "nonword" "nonword" 45 1 613 0 "nonword" "asfalto" 2.425 10 "pseudoword" 1.95 3.3 4.19 "orio" 0.361361599061873
"asfaltorio" "SB35" "LDF" "5" "D" "1335" 1030 "nonword" "nonword" 25 1 865 1 "nonword" "asfalto" 2.425 10 "pseudoword" 1.95 3.3 4.19 "orio" 0.361361599061873
"asfaltorio" "MT11" "LDF" "5" "S" "1335" 759 "nonword" "nonword" 82 1 538 1 "nonword" "asfalto" 2.425 10 "pseudoword" 1.95 3.3 4.19 "orio" 0.361361599061873
"asfaltorio" "AB53" "LDF" "5" "D" "1335" 1686 "nonword" "nonword" 31 1 870 1 "nonword" "asfalto" 2.425 10 "pseudoword" 1.95 3.3 4.19 "orio" 0.361361599061873
"asfaltorio" "SE23" "LDF" "5" "D" "1335" 1952 "nonword" "nonword" 26 1 777 1 "nonword" "asfalto" 2.425 10 "pseudoword" 1.95 3.3 4.19 "orio" 0.361361599061873
"asfaltorio" "SS41" "LDF" "5" "D" "1335" 736 "word" "nonword" 80 0 973 1 "nonword" "asfalto" 2.425 10 "pseudoword" 1.95 3.3 4.19 "orio" 0.361361599061873
"asfaltorio" "SP17" "LDF" "5" "D" "1335" 1126 "nonword" "nonword" 75 1 588 1 "nonword" "asfalto" 2.425 10 "pseudoword" 1.95 3.3 4.19 "orio" 0.361361599061873
"assistente" "GS36" "LDF" "6" "D" "2424" 491 "word" "word" 68 1 502 1 "word" "assisto" 1.568 10 "derived" 1.55 1.1 5.879 "ente" NA
"assistente" "ZF42" "LDF" "6" "D" "2424" 375 "word" "word" 94 1 291 0 "word" "assisto" 1.568 10 "derived" 1.55 1.1 5.879 "ente" NA
"assistente" "SP12" "LDF" "6" "S" "2424" 590 "word" "word" 74 1 993 1 "word" "assisto" 1.568 10 "derived" 1.55 1.1 5.879 "ente" NA
"assistente" "RE24" "LDF" "6" "S" "2424" 1039 "word" "word" 34 1 829 0 "word" "assisto" 1.568 10 "derived" 1.55 1.1 5.879 "ente" NA
"assistente" "GF54" "LDF" "6" "D" "2424" 498 "word" "word" 68 1 585 1 "word" "assisto" 1.568 10 "derived" 1.55 1.1 5.879 "ente" NA
"assistente" "GDL30" "LDF" "6" "D" "2424" 495 "word" "word" 24 1 754 1 "word" "assisto" 1.568 10 "derived" 1.55 1.1 5.879 "ente" NA
"assistente" "AA18" "LDF" "6" "D" "2424" 611 "word" "word" 63 1 763 1 "word" "assisto" 1.568 10 "derived" 1.55 1.1 5.879 "ente" NA
"assistente" "MV48" "LDF" "6" "D" "2424" 979 "word" "word" 24 1 659 1 "word" "assisto" 1.568 10 "derived" 1.55 1.1 5.879 "ente" NA
"assistente" "CC6" "LDF" "6" "D" "2424" 574 "word" "word" 89 1 747 1 "word" "assisto" 1.568 10 "derived" 1.55 1.1 5.879 "ente" NA
"avvertenza" "SS41" "LDF" "5" "D" "2355" 601 "word" "word" 62 1 905 1 "word" "avverto" 3.137 10 "derived" 1.3 2.7 5.203 "enza" NA
"avvertenza" "RS56" "LDF" "5" "D" "2355" 629 "word" "word" 81 1 722 0 "word" "avverto" 3.137 10 "derived" 1.3 2.7 5.203 "enza" NA
"avvertenza" "GL47" "LDF" "5" "S" "2355" 504 "word" "word" 81 1 701 1 "word" "avverto" 3.137 10 "derived" 1.3 2.7 5.203 "enza" NA
"avvertenza" "SB35" "LDF" "5" "D" "2355" 1484 "word" "word" 50 1 710 1 "word" "avverto" 3.137 10 "derived" 1.3 2.7 5.203 "enza" NA
"avvertenza" "SP17" "LDF" "5" "D" "2355" 829 "word" "word" 21 1 664 1 "word" "avverto" 3.137 10 "derived" 1.3 2.7 5.203 "enza" NA
"avvertenza" "SE23" "LDF" "5" "D" "2355" 954 "word" "word" 61 1 1032 1 "word" "avverto" 3.137 10 "derived" 1.3 2.7 5.203 "enza" NA
"avvertenza" "MT11" "LDF" "5" "S" "2355" 841 "word" "word" 95 1 751 1 "word" "avverto" 3.137 10 "derived" 1.3 2.7 5.203 "enza" NA
"avvertenza" "AB53" "LDF" "5" "D" "2355" 747 "word" "word" 87 1 841 1 "word" "avverto" 3.137 10 "derived" 1.3 2.7 5.203 "enza" NA
"avvertenza" "MN5" "LDF" "5" "S" "2355" 786 "word" "word" 81 1 1534 0 "word" "avverto" 3.137 10 "derived" 1.3 2.7 5.203 "enza" NA
"avvertenza" "AC29" "LDF" "5" "D" "2355" 885 "word" "word" 29 1 1192 1 "word" "avverto" 3.137 10 "derived" 1.3 2.7 5.203 "enza" NA
"baccanente" "CC6" "LDF" "6" "D" "1398" 1088 "nonword" "nonword" 35 1 759 1 "nonword" "baccano" 2.474 10 "pseudoword" 1.75 2.95 5.879 "ente" -0.478425378201828
"baccanente" "GDL30" "LDF" "6" "D" "1398" 1338 "nonword" "nonword" 77 1 1106 1 "nonword" "baccano" 2.474 10 "pseudoword" 1.75 2.95 5.879 "ente" -0.478425378201828
"baccanente" "SP12" "LDF" "6" "S" "1398" 985 "nonword" "nonword" 70 1 617 1 "nonword" "baccano" 2.474 10 "pseudoword" 1.75 2.95 5.879 "ente" -0.478425378201828
"baccanente" "GF54" "LDF" "6" "D" "1398" 540 "nonword" "nonword" 62 1 494 1 "nonword" "baccano" 2.474 10 "pseudoword" 1.75 2.95 5.879 "ente" -0.478425378201828
"baccanente" "MV48" "LDF" "6" "D" "1398" 795 "nonword" "nonword" 77 1 1026 1 "nonword" "baccano" 2.474 10 "pseudoword" 1.75 2.95 5.879 "ente" -0.478425378201828
"baccanente" "ZF42" "LDF" "6" "D" "1398" 564 "nonword" "nonword" 29 1 606 1 "nonword" "baccano" 2.474 10 "pseudoword" 1.75 2.95 5.879 "ente" -0.478425378201828
"baccanente" "GS36" "LDF" "6" "D" "1398" 740 "nonword" "nonword" 62 1 624 1 "nonword" "baccano" 2.474 10 "pseudoword" 1.75 2.95 5.879 "ente" -0.478425378201828
"baccanente" "AA18" "LDF" "6" "D" "1398" 975 "nonword" "nonword" 50 1 802 1 "nonword" "baccano" 2.474 10 "pseudoword" 1.75 2.95 5.879 "ente" -0.478425378201828
"baccanente" "RE24" "LDF" "6" "S" "1398" 1142 "nonword" "nonword" 40 1 935 0 "nonword" "baccano" 2.474 10 "pseudoword" 1.75 2.95 5.879 "ente" -0.478425378201828
"baciaggio" "MT11" "LDF" "5" "S" "1327" 965 "nonword" "nonword" 42 1 605 1 "nonword" "bacio" 3.675 9 "pseudoword" 1 2.9 4.902 "aggio" -0.0857209477771058
"baciaggio" "AB53" "LDF" "5" "D" "1327" 1261 "nonword" "nonword" 49 1 1337 0 "nonword" "bacio" 3.675 9 "pseudoword" 1 2.9 4.902 "aggio" -0.0857209477771058
"baciaggio" "MN5" "LDF" "5" "S" "1327" 886 "nonword" "nonword" 64 1 1114 1 "nonword" "bacio" 3.675 9 "pseudoword" 1 2.9 4.902 "aggio" -0.0857209477771058
"baciaggio" "SS41" "LDF" "5" "D" "1327" 676 "nonword" "nonword" 70 1 784 1 "nonword" "bacio" 3.675 9 "pseudoword" 1 2.9 4.902 "aggio" -0.0857209477771058
"baciaggio" "AC29" "LDF" "5" "D" "1327" 755 "nonword" "nonword" 36 1 844 1 "nonword" "bacio" 3.675 9 "pseudoword" 1 2.9 4.902 "aggio" -0.0857209477771058
"baciaggio" "SB35" "LDF" "5" "D" "1327" 0 "NoResponse" "nonword" 66 0 1022 1 "nonword" "bacio" 3.675 9 "pseudoword" 1 2.9 4.902 "aggio" -0.0857209477771058
"baciaggio" "SE23" "LDF" "5" "D" "1327" 1189 "nonword" "nonword" 19 1 1085 1 "nonword" "bacio" 3.675 9 "pseudoword" 1 2.9 4.902 "aggio" -0.0857209477771058
"baciaggio" "RS56" "LDF" "5" "D" "1327" 721 "nonword" "nonword" 64 1 535 1 "nonword" "bacio" 3.675 9 "pseudoword" 1 2.9 4.902 "aggio" -0.0857209477771058
"baciaggio" "SP17" "LDF" "5" "D" "1327" 1118 "nonword" "nonword" 92 1 682 1 "nonword" "bacio" 3.675 9 "pseudoword" 1 2.9 4.902 "aggio" -0.0857209477771058
"baciaggio" "GL47" "LDF" "5" "S" "1327" 660 "nonword" "nonword" 64 1 531 1 "nonword" "bacio" 3.675 9 "pseudoword" 1 2.9 4.902 "aggio" -0.0857209477771058
"bamboliero" "AR50" "LDF" "2" "D" "1090" 748 "nonword" "nonword" 25 1 689 1 "nonword" "bambola" 3.193 10 "pseudoword" 1.5 2.95 4.172 "iero" 0.372638349906173
"bamboliero" "LC44" "LDF" "2" "D" "1090" 777 "nonword" "nonword" 81 1 445 1 "nonword" "bambola" 3.193 10 "pseudoword" 1.5 2.95 4.172 "iero" 0.372638349906173
"bamboliero" "IF14" "LDF" "2" "D" "1090" 703 "nonword" "nonword" 44 1 728 1 "nonword" "bambola" 3.193 10 "pseudoword" 1.5 2.95 4.172 "iero" 0.372638349906173
"bamboliero" "DC2" "LDF" "2" "D" "1090" 744 "word" "nonword" 63 0 696 1 "nonword" "bambola" 3.193 10 "pseudoword" 1.5 2.95 4.172 "iero" 0.372638349906173
"bamboliero" "AF8" "LDF" "2" "D" "1090" 944 "nonword" "nonword" 46 1 559 1 "nonword" "bambola" 3.193 10 "pseudoword" 1.5 2.95 4.172 "iero" 0.372638349906173
"bamboliero" "FLB20" "LDF" "2" "D" "1090" 601 "nonword" "nonword" 25 1 598 1 "nonword" "bambola" 3.193 10 "pseudoword" 1.5 2.95 4.172 "iero" 0.372638349906173
"bamboliero" "MB38" "LDF" "2" "D" "1090" 1129 "nonword" "nonword" 46 1 536 1 "nonword" "bambola" 3.193 10 "pseudoword" 1.5 2.95 4.172 "iero" 0.372638349906173
"bamboliero" "MC26" "LDF" "2" "D" "1090" 842 "nonword" "nonword" 30 1 841 1 "nonword" "bambola" 3.193 10 "pseudoword" 1.5 2.95 4.172 "iero" 0.372638349906173
"bamboliero" "SDC32" "LDF" "2" "D" "1090" 1389 "nonword" "nonword" 60 1 1197 0 "nonword" "bambola" 3.193 10 "pseudoword" 1.5 2.95 4.172 "iero" 0.372638349906173
"barbiere" "AB53" "LDF" "5" "D" "2348" 564 "word" "word" 51 1 578 1 "word" "barba" 3.263 8 "derived" 1 1.75 4.665 "iere" NA
"barbiere" "RS56" "LDF" "5" "D" "2348" 606 "word" "word" 65 1 721 1 "word" "barba" 3.263 8 "derived" 1 1.75 4.665 "iere" NA
"barbiere" "MN5" "LDF" "5" "S" "2348" 565 "word" "word" 65 1 886 1 "word" "barba" 3.263 8 "derived" 1 1.75 4.665 "iere" NA
"barbiere" "MT11" "LDF" "5" "S" "2348" 588 "word" "word" 47 1 1035 1 "word" "barba" 3.263 8 "derived" 1 1.75 4.665 "iere" NA
"barbiere" "SE23" "LDF" "5" "D" "2348" 913 "word" "word" 20 1 1189 1 "word" "barba" 3.263 8 "derived" 1 1.75 4.665 "iere" NA
"barbiere" "SB35" "LDF" "5" "D" "2348" 819 "word" "word" 68 1 700 1 "word" "barba" 3.263 8 "derived" 1 1.75 4.665 "iere" NA
"barbiere" "AC29" "LDF" "5" "D" "2348" 759 "word" "word" 39 1 1416 1 "word" "barba" 3.263 8 "derived" 1 1.75 4.665 "iere" NA
"barbiere" "SP17" "LDF" "5" "D" "2348" 682 "word" "word" 91 1 1051 1 "word" "barba" 3.263 8 "derived" 1 1.75 4.665 "iere" NA
"barbiere" "SS41" "LDF" "5" "D" "2348" 519 "word" "word" 71 1 676 1 "word" "barba" 3.263 8 "derived" 1 1.75 4.665 "iere" NA
"barbiere" "GL47" "LDF" "5" "S" "2348" 478 "word" "word" 65 1 660 1 "word" "barba" 3.263 8 "derived" 1 1.75 4.665 "iere" NA
"barbuto" "AR50" "LDF" "2" "D" "2105" 612 "word" "word" 85 1 740 1 "word" "barba" 3.263 7 "derived" 1 1.8 5.533 "uto" NA
"barbuto" "MB38" "LDF" "2" "D" "2105" 615 "word" "word" 91 1 929 1 "word" "barba" 3.263 7 "derived" 1 1.8 5.533 "uto" NA
"barbuto" "SDC32" "LDF" "2" "D" "2105" 1017 "word" "word" 33 1 1204 1 "word" "barba" 3.263 7 "derived" 1 1.8 5.533 "uto" NA
"barbuto" "DC2" "LDF" "2" "D" "2105" 635 "word" "word" 90 1 932 1 "word" "barba" 3.263 7 "derived" 1 1.8 5.533 "uto" NA
"barbuto" "FLB20" "LDF" "2" "D" "2105" 494 "word" "word" 85 1 847 1 "word" "barba" 3.263 7 "derived" 1 1.8 5.533 "uto" NA
"barbuto" "AF8" "LDF" "2" "D" "2105" 522 "word" "word" 91 1 658 0 "word" "barba" 3.263 7 "derived" 1 1.8 5.533 "uto" NA
"barbuto" "MC26" "LDF" "2" "D" "2105" 572 "word" "word" 24 1 627 1 "word" "barba" 3.263 7 "derived" 1 1.8 5.533 "uto" NA
"barbuto" "LC44" "LDF" "2" "D" "2105" 515 "word" "word" 24 1 637 0 "word" "barba" 3.263 7 "derived" 1 1.8 5.533 "uto" NA
"barbuto" "IF14" "LDF" "2" "D" "2105" 752 "word" "word" 40 1 657 1 "word" "barba" 3.263 7 "derived" 1 1.8 5.533 "uto" NA
"baritentro" "GG27" "LDF" "3" "D" "4228" 964 "nonword" "nonword" 65 1 653 1 "nonword" NA NA 10 "simple" NA 3.5 NA NA NA
"baritentro" "SP17" "LDF" "5" "D" "4384" 1103 "nonword" "nonword" 65 1 1083 1 "nonword" NA NA 10 "simple" NA 3.5 NA NA NA
"baritentro" "SP12" "LDF" "6" "S" "4462" 1037 "nonword" "nonword" 67 1 597 1 "nonword" NA NA 10 "simple" NA 3.5 NA NA NA
"baritentro" "GF54" "LDF" "6" "D" "4462" 812 "nonword" "nonword" 65 1 532 0 "nonword" NA NA 10 "simple" NA 3.5 NA NA NA
"baritentro" "ACV34" "LDF" "4" "S" "4306" 937 "nonword" "nonword" 76 1 444 1 "nonword" NA NA 10 "simple" NA 3.5 NA NA NA
"baritentro" "MT11" "LDF" "5" "S" "4384" 759 "nonword" "nonword" 27 1 710 1 "nonword" NA NA 10 "simple" NA 3.5 NA NA NA
"baritentro" "AF8" "LDF" "2" "D" "4150" 917 "nonword" "nonword" 51 1 985 1 "nonword" NA NA 10 "simple" NA 3.5 NA NA NA
"baritentro" "EP37" "LDF" "1" "D" "4072" 1320 "nonword" "nonword" 19 1 983 1 "nonword" NA NA 10 "simple" NA 3.5 NA NA NA
"baritentro" "GS36" "LDF" "6" "D" "4462" 756 "nonword" "nonword" 65 1 712 0 "nonword" NA NA 10 "simple" NA 3.5 NA NA NA
"baritentro" "ADB4" "LDF" "4" "D" "4306" 1233 "nonword" "nonword" 94 1 908 0 "nonword" NA NA 10 "simple" NA 3.5 NA NA NA
"baritentro" "RS56" "LDF" "5" "D" "4384" 658 "nonword" "nonword" 76 1 766 1 "nonword" NA NA 10 "simple" NA 3.5 NA NA NA
"baritentro" "AG25" "LDF" "1" "D" "4072" 815 "nonword" "nonword" 65 1 708 1 "nonword" NA NA 10 "simple" NA 3.5 NA NA NA
"baritentro" "VB10" "LDF" "4" "D" "4306" 534 "nonword" "nonword" 95 1 612 1 "nonword" NA NA 10 "simple" NA 3.5 NA NA NA
"baritentro" "IF14" "LDF" "2" "D" "4150" 958 "nonword" "nonword" 78 1 648 1 "nonword" NA NA 10 "simple" NA 3.5 NA NA NA
"baritentro" "FD55" "LDF" "1" "D" "4072" 567 "nonword" "nonword" 54 1 503 1 "nonword" NA NA 10 "simple" NA 3.5 NA NA NA
"baritentro" "MC3" "LDF" "3" "D" "4228" 888 "nonword" "nonword" 54 1 598 1 "nonword" NA NA 10 "simple" NA 3.5 NA NA NA
"baritentro" "GL47" "LDF" "5" "S" "4384" 767 "nonword" "nonword" 76 1 704 1 "nonword" NA NA 10 "simple" NA 3.5 NA NA NA
"baritentro" "MVT19" "LDF" "1" "D" "4072" 1589 "nonword" "nonword" 54 1 852 1 "nonword" NA NA 10 "simple" NA 3.5 NA NA NA
"baritentro" "SB35" "LDF" "5" "D" "4384" 1684 "nonword" "nonword" 55 1 1244 1 "nonword" NA NA 10 "simple" NA 3.5 NA NA NA
"baritentro" "AA18" "LDF" "6" "D" "4462" 860 "nonword" "nonword" 51 1 975 1 "nonword" NA NA 10 "simple" NA 3.5 NA NA NA
"baritentro" "CF1" "LDF" "1" "D" "4072" 785 "word" "nonword" 65 0 538 1 "nonword" NA NA 10 "simple" NA 3.5 NA NA NA
"baritentro" "AC43" "LDF" "1" "D" "4072" 782 "nonword" "nonword" 65 1 845 1 "nonword" NA NA 10 "simple" NA 3.5 NA NA NA
"baritentro" "ADC28" "LDF" "4" "D" "4306" 604 "nonword" "nonword" 76 1 472 1 "nonword" NA NA 10 "simple" NA 3.5 NA NA NA
"baritentro" "SS41" "LDF" "5" "D" "4384" 1257 "nonword" "nonword" 49 1 874 0 "nonword" NA NA 10 "simple" NA 3.5 NA NA NA
"baritentro" "ZF42" "LDF" "6" "D" "4462" 501 "word" "nonword" 24 0 672 1 "nonword" NA NA 10 "simple" NA 3.5 NA NA NA
"baritentro" "LM21" "LDF" "3" "D" "4228" 1232 "nonword" "nonword" 65 1 933 1 "nonword" NA NA 10 "simple" NA 3.5 NA NA NA
"baritentro" "FC39" "LDF" "3" "D" "4228" 1140 "nonword" "nonword" 32 1 1101 1 "nonword" NA NA 10 "simple" NA 3.5 NA NA NA
"baritentro" "DC2" "LDF" "2" "D" "4150" 959 "nonword" "nonword" 69 1 672 1 "nonword" NA NA 10 "simple" NA 3.5 NA NA NA
"baritentro" "MC26" "LDF" "2" "D" "4150" 532 "nonword" "nonword" 54 1 469 1 "nonword" NA NA 10 "simple" NA 3.5 NA NA NA
"baritentro" "EV51" "LDF" "3" "D" "4228" 1336 "nonword" "nonword" 54 1 736 1 "nonword" NA NA 10 "simple" NA 3.5 NA NA NA
"baritentro" "CC6" "LDF" "6" "D" "4462" 1048 "nonword" "nonword" 32 1 533 0 "nonword" NA NA 10 "simple" NA 3.5 NA NA NA
"baritentro" "FLB20" "LDF" "2" "D" "4150" 549 "nonword" "nonword" 65 1 640 1 "nonword" NA NA 10 "simple" NA 3.5 NA NA NA
"baritentro" "MV48" "LDF" "6" "D" "4462" 1026 "nonword" "nonword" 76 1 1387 0 "nonword" NA NA 10 "simple" NA 3.5 NA NA NA
"baritentro" "MB38" "LDF" "2" "D" "4150" 1131 "nonword" "nonword" 51 1 906 0 "nonword" NA NA 10 "simple" NA 3.5 NA NA NA
"baritentro" "DM7" "LDF" "1" "D" "4072" 1596 "nonword" "nonword" 86 1 1587 1 "nonword" NA NA 10 "simple" NA 3.5 NA NA NA
"baritentro" "DS31" "LDF" "1" "D" "4072" 784 "nonword" "nonword" 57 1 482 0 "nonword" NA NA 10 "simple" NA 3.5 NA NA NA
"baritentro" "VA49" "LDF" "1" "D" "4072" 719 "nonword" "nonword" 38 1 705 1 "nonword" NA NA 10 "simple" NA 3.5 NA NA NA
"baritentro" "MP15" "LDF" "3" "D" "4228" 1038 "nonword" "nonword" 82 1 829 1 "nonword" NA NA 10 "simple" NA 3.5 NA NA NA
"baritentro" "SE23" "LDF" "5" "D" "4384" 1566 "nonword" "nonword" 32 1 1309 1 "nonword" NA NA 10 "simple" NA 3.5 NA NA NA
"baritentro" "GP40" "LDF" "4" "D" "4306" 678 "nonword" "nonword" 56 1 714 1 "nonword" NA NA 10 "simple" NA 3.5 NA NA NA
"baritentro" "MN5" "LDF" "5" "S" "4384" 1441 "nonword" "nonword" 76 1 1107 0 "nonword" NA NA 10 "simple" NA 3.5 NA NA NA
"baritentro" "AB53" "LDF" "5" "D" "4384" 1053 "nonword" "nonword" 78 1 1090 1 "nonword" NA NA 10 "simple" NA 3.5 NA NA NA
"baritentro" "SDC32" "LDF" "2" "D" "4150" 955 "nonword" "nonword" 27 1 748 1 "nonword" NA NA 10 "simple" NA 3.5 NA NA NA
"baritentro" "GC46" "LDF" "4" "D" "4306" 1114 "nonword" "nonword" 41 1 890 1 "nonword" NA NA 10 "simple" NA 3.5 NA NA NA
"baritentro" "GDL30" "LDF" "6" "D" "4462" 1106 "nonword" "nonword" 76 1 1060 1 "nonword" NA NA 10 "simple" NA 3.5 NA NA NA
"baritentro" "CS33" "LDF" "3" "D" "4228" 1128 "nonword" "nonword" 65 1 800 0 "nonword" NA NA 10 "simple" NA 3.5 NA NA NA
"baritentro" "AB9" "LDF" "3" "D" "4228" 926 "nonword" "nonword" 51 1 781 1 "nonword" NA NA 10 "simple" NA 3.5 NA NA NA
"baritentro" "EM13" "LDF" "1" "D" "4072" 920 "nonword" "nonword" 76 1 904 1 "nonword" NA NA 10 "simple" NA 3.5 NA NA NA
"baritentro" "RE24" "LDF" "6" "S" "4462" 1445 "nonword" "nonword" 41 1 1142 1 "nonword" NA NA 10 "simple" NA 3.5 NA NA NA
"baritentro" "LC44" "LDF" "2" "D" "4150" 637 "nonword" "nonword" 66 1 618 1 "nonword" NA NA 10 "simple" NA 3.5 NA NA NA
"baritentro" "AR50" "LDF" "2" "D" "4150" 736 "nonword" "nonword" 65 1 682 1 "nonword" NA NA 10 "simple" NA 3.5 NA NA NA
"baritentro" "FC52" "LDF" "4" "D" "4306" 818 "nonword" "nonword" 65 1 571 1 "nonword" NA NA 10 "simple" NA 3.5 NA NA NA
"baritentro" "AV45" "LDF" "3" "D" "4228" 981 "nonword" "nonword" 41 1 614 1 "nonword" NA NA 10 "simple" NA 3.5 NA NA NA
"baritentro" "AC29" "LDF" "5" "D" "4384" 1385 "nonword" "nonword" 51 1 903 1 "nonword" NA NA 10 "simple" NA 3.5 NA NA NA
"baritentro" "MC16" "LDF" "4" "D" "4306" 885 "nonword" "nonword" 32 1 748 1 "nonword" NA NA 10 "simple" NA 3.5 NA NA NA
"baritentro" "LJ22" "LDF" "4" "D" "4306" 765 "nonword" "nonword" 65 1 740 1 "nonword" NA NA 10 "simple" NA 3.5 NA NA NA
"basente" "DS31" "LDF" "1" "D" "1001" 735 "nonword" "nonword" 43 1 544 1 "nonword" "base" 3.973 7 "pseudoword" 1 1.85 5.879 "ente" -0.784237492178028
"basente" "AG25" "LDF" "1" "D" "1001" 626 "nonword" "nonword" 51 1 500 1 "nonword" "base" 3.973 7 "pseudoword" 1 1.85 5.879 "ente" -0.784237492178028
"basente" "CF1" "LDF" "1" "D" "1001" 632 "nonword" "nonword" 51 1 437 1 "nonword" "base" 3.973 7 "pseudoword" 1 1.85 5.879 "ente" -0.784237492178028
"basente" "FD55" "LDF" "1" "D" "1001" 796 "nonword" "nonword" 68 1 722 1 "nonword" "base" 3.973 7 "pseudoword" 1 1.85 5.879 "ente" -0.784237492178028
"basente" "VA49" "LDF" "1" "D" "1001" 591 "nonword" "nonword" 80 1 472 1 "nonword" "base" 3.973 7 "pseudoword" 1 1.85 5.879 "ente" -0.784237492178028
"basente" "DM7" "LDF" "1" "D" "1001" 507 "word" "nonword" 55 0 987 1 "nonword" "base" 3.973 7 "pseudoword" 1 1.85 5.879 "ente" -0.784237492178028
"basente" "EP37" "LDF" "1" "D" "1001" 1232 "nonword" "nonword" 34 1 727 1 "nonword" "base" 3.973 7 "pseudoword" 1 1.85 5.879 "ente" -0.784237492178028
"basente" "MVT19" "LDF" "1" "D" "1001" 1086 "nonword" "nonword" 68 1 1488 1 "nonword" "base" 3.973 7 "pseudoword" 1 1.85 5.879 "ente" -0.784237492178028
"basente" "EM13" "LDF" "1" "D" "1001" 658 "nonword" "nonword" 71 1 743 1 "nonword" "base" 3.973 7 "pseudoword" 1 1.85 5.879 "ente" -0.784237492178028
"basente" "AC43" "LDF" "1" "D" "1001" 667 "nonword" "nonword" 51 1 609 1 "nonword" "base" 3.973 7 "pseudoword" 1 1.85 5.879 "ente" -0.784237492178028
"bisbiglio" "AF8" "LDF" "2" "D" "3137" 593 "word" "word" 49 1 709 1 "word" "bisbiglio" 1.415 9 "simple" 2.05 2.05 NA NA NA
"bisbiglio" "AC43" "LDF" "1" "D" "3059" 677 "word" "word" 63 1 804 0 "word" "bisbiglio" 1.415 9 "simple" 2.05 2.05 NA NA NA
"bisbiglio" "FC39" "LDF" "3" "D" "3215" 1023 "word" "word" 30 1 1123 1 "word" "bisbiglio" 1.415 9 "simple" 2.05 2.05 NA NA NA
"bisbiglio" "CF1" "LDF" "1" "D" "3059" 514 "word" "word" 63 1 654 1 "word" "bisbiglio" 1.415 9 "simple" 2.05 2.05 NA NA NA
"bisbiglio" "LJ22" "LDF" "4" "D" "3293" 657 "word" "word" 63 1 708 0 "word" "bisbiglio" 1.415 9 "simple" 2.05 2.05 NA NA NA
"bisbiglio" "MC3" "LDF" "3" "D" "3215" 845 "word" "word" 57 1 851 1 "word" "bisbiglio" 1.415 9 "simple" 2.05 2.05 NA NA NA
"bisbiglio" "GG27" "LDF" "3" "D" "3215" 641 "word" "word" 63 1 758 1 "word" "bisbiglio" 1.415 9 "simple" 2.05 2.05 NA NA NA
"bisbiglio" "IF14" "LDF" "2" "D" "3137" 690 "word" "word" 82 1 692 1 "word" "bisbiglio" 1.415 9 "simple" 2.05 2.05 NA NA NA
"bisbiglio" "SP12" "LDF" "6" "S" "3449" 597 "word" "word" 66 1 700 1 "word" "bisbiglio" 1.415 9 "simple" 2.05 2.05 NA NA NA
"bisbiglio" "MC26" "LDF" "2" "D" "3137" 446 "word" "word" 57 1 575 1 "word" "bisbiglio" 1.415 9 "simple" 2.05 2.05 NA NA NA
"bisbiglio" "MP15" "LDF" "3" "D" "3215" 680 "word" "word" 83 1 1038 1 "word" "bisbiglio" 1.415 9 "simple" 2.05 2.05 NA NA NA
"bisbiglio" "MB38" "LDF" "2" "D" "3137" 804 "word" "word" 49 1 947 0 "word" "bisbiglio" 1.415 9 "simple" 2.05 2.05 NA NA NA
"bisbiglio" "AG25" "LDF" "1" "D" "3059" 835 "word" "word" 63 1 878 1 "word" "bisbiglio" 1.415 9 "simple" 2.05 2.05 NA NA NA
"bisbiglio" "GF54" "LDF" "6" "D" "3449" 559 "word" "word" 63 1 540 1 "word" "bisbiglio" 1.415 9 "simple" 2.05 2.05 NA NA NA
"bisbiglio" "GL47" "LDF" "5" "S" "3371" 653 "word" "word" 73 1 597 1 "word" "bisbiglio" 1.415 9 "simple" 2.05 2.05 NA NA NA
"bisbiglio" "ACV34" "LDF" "4" "S" "3293" 589 "word" "word" 73 1 954 1 "word" "bisbiglio" 1.415 9 "simple" 2.05 2.05 NA NA NA
"bisbiglio" "LM21" "LDF" "3" "D" "3215" 749 "word" "word" 63 1 1022 1 "word" "bisbiglio" 1.415 9 "simple" 2.05 2.05 NA NA NA
"bisbiglio" "GP40" "LDF" "4" "D" "3293" 683 "word" "word" 57 1 678 1 "word" "bisbiglio" 1.415 9 "simple" 2.05 2.05 NA NA NA
"bisbiglio" "AV45" "LDF" "3" "D" "3215" 725 "word" "word" 36 1 599 1 "word" "bisbiglio" 1.415 9 "simple" 2.05 2.05 NA NA NA
"bisbiglio" "AR50" "LDF" "2" "D" "3137" 647 "word" "word" 63 1 955 1 "word" "bisbiglio" 1.415 9 "simple" 2.05 2.05 NA NA NA
"bisbiglio" "DM7" "LDF" "1" "D" "3059" 1325 "word" "word" 84 1 1198 1 "word" "bisbiglio" 1.415 9 "simple" 2.05 2.05 NA NA NA
"bisbiglio" "CC6" "LDF" "6" "D" "3449" 843 "word" "word" 30 1 1089 1 "word" "bisbiglio" 1.415 9 "simple" 2.05 2.05 NA NA NA
"bisbiglio" "MVT19" "LDF" "1" "D" "3059" 855 "word" "word" 57 1 982 1 "word" "bisbiglio" 1.415 9 "simple" 2.05 2.05 NA NA NA
"bisbiglio" "ADC28" "LDF" "4" "D" "3293" 578 "word" "word" 73 1 593 0 "word" "bisbiglio" 1.415 9 "simple" 2.05 2.05 NA NA NA
"bisbiglio" "SE23" "LDF" "5" "D" "3371" 1506 "word" "word" 30 1 1277 1 "word" "bisbiglio" 1.415 9 "simple" 2.05 2.05 NA NA NA
"bisbiglio" "AA18" "LDF" "6" "D" "3449" 802 "word" "word" 49 1 757 0 "word" "bisbiglio" 1.415 9 "simple" 2.05 2.05 NA NA NA
"bisbiglio" "GC46" "LDF" "4" "D" "3293" 675 "word" "word" 36 1 1072 1 "word" "bisbiglio" 1.415 9 "simple" 2.05 2.05 NA NA NA
"bisbiglio" "FD55" "LDF" "1" "D" "3059" 608 "word" "word" 57 1 751 1 "word" "bisbiglio" 1.415 9 "simple" 2.05 2.05 NA NA NA
"bisbiglio" "RS56" "LDF" "5" "D" "3371" 525 "word" "word" 73 1 718 1 "word" "bisbiglio" 1.415 9 "simple" 2.05 2.05 NA NA NA
"bisbiglio" "SB35" "LDF" "5" "D" "3371" 775 "word" "word" 59 1 1025 1 "word" "bisbiglio" 1.415 9 "simple" 2.05 2.05 NA NA NA
"bisbiglio" "VA49" "LDF" "1" "D" "3059" 705 "word" "word" 37 1 662 1 "word" "bisbiglio" 1.415 9 "simple" 2.05 2.05 NA NA NA
"bisbiglio" "VB10" "LDF" "4" "D" "3293" 698 "word" "word" 93 1 986 1 "word" "bisbiglio" 1.415 9 "simple" 2.05 2.05 NA NA NA
"bisbiglio" "SDC32" "LDF" "2" "D" "3137" 748 "word" "word" 26 1 1009 1 "word" "bisbiglio" 1.415 9 "simple" 2.05 2.05 NA NA NA
"bisbiglio" "MT11" "LDF" "5" "S" "3371" 693 "word" "word" 24 1 577 1 "word" "bisbiglio" 1.415 9 "simple" 2.05 2.05 NA NA NA
"bisbiglio" "MC16" "LDF" "4" "D" "3293" 647 "word" "word" 30 1 897 0 "word" "bisbiglio" 1.415 9 "simple" 2.05 2.05 NA NA NA
"bisbiglio" "SS41" "LDF" "5" "D" "3371" 664 "word" "word" 50 1 1257 1 "word" "bisbiglio" 1.415 9 "simple" 2.05 2.05 NA NA NA
"bisbiglio" "DS31" "LDF" "1" "D" "3059" 482 "nonword" "word" 56 0 661 1 "word" "bisbiglio" 1.415 9 "simple" 2.05 2.05 NA NA NA
"bisbiglio" "DC2" "LDF" "2" "D" "3137" 729 "word" "word" 70 1 959 1 "word" "bisbiglio" 1.415 9 "simple" 2.05 2.05 NA NA NA
"bisbiglio" "EP37" "LDF" "1" "D" "3059" 765 "word" "word" 21 1 1503 0 "word" "bisbiglio" 1.415 9 "simple" 2.05 2.05 NA NA NA
"bisbiglio" "LC44" "LDF" "2" "D" "3137" 855 "word" "word" 67 1 637 1 "word" "bisbiglio" 1.415 9 "simple" 2.05 2.05 NA NA NA
"bisbiglio" "FLB20" "LDF" "2" "D" "3137" 741 "word" "word" 63 1 740 1 "word" "bisbiglio" 1.415 9 "simple" 2.05 2.05 NA NA NA
"bisbiglio" "EM13" "LDF" "1" "D" "3059" 721 "word" "word" 73 1 921 1 "word" "bisbiglio" 1.415 9 "simple" 2.05 2.05 NA NA NA
"bisbiglio" "MV48" "LDF" "6" "D" "3449" 644 "word" "word" 73 1 678 1 "word" "bisbiglio" 1.415 9 "simple" 2.05 2.05 NA NA NA
"bisbiglio" "ZF42" "LDF" "6" "D" "3449" 827 "word" "word" 26 1 683 0 "word" "bisbiglio" 1.415 9 "simple" 2.05 2.05 NA NA NA
"bisbiglio" "AC29" "LDF" "5" "D" "3371" 815 "word" "word" 49 1 849 1 "word" "bisbiglio" 1.415 9 "simple" 2.05 2.05 NA NA NA
"bisbiglio" "ADB4" "LDF" "4" "D" "3293" 943 "word" "word" 92 1 734 1 "word" "bisbiglio" 1.415 9 "simple" 2.05 2.05 NA NA NA
"bisbiglio" "AB53" "LDF" "5" "D" "3371" 658 "word" "word" 82 1 944 1 "word" "bisbiglio" 1.415 9 "simple" 2.05 2.05 NA NA NA
"bisbiglio" "GDL30" "LDF" "6" "D" "3449" 877 "word" "word" 73 1 773 1 "word" "bisbiglio" 1.415 9 "simple" 2.05 2.05 NA NA NA
"bisbiglio" "CS33" "LDF" "3" "D" "3215" 802 "word" "word" 63 1 870 1 "word" "bisbiglio" 1.415 9 "simple" 2.05 2.05 NA NA NA
"bisbiglio" "SP17" "LDF" "5" "D" "3371" 679 "word" "word" 63 1 1133 1 "word" "bisbiglio" 1.415 9 "simple" 2.05 2.05 NA NA NA
"bisbiglio" "GS36" "LDF" "6" "D" "3449" 754 "word" "word" 63 1 740 1 "word" "bisbiglio" 1.415 9 "simple" 2.05 2.05 NA NA NA
"bisbiglio" "RE24" "LDF" "6" "S" "3449" 1120 "word" "word" 37 1 913 1 "word" "bisbiglio" 1.415 9 "simple" 2.05 2.05 NA NA NA
"bisbiglio" "MN5" "LDF" "5" "S" "3371" 656 "word" "word" 73 1 1229 1 "word" "bisbiglio" 1.415 9 "simple" 2.05 2.05 NA NA NA
"bisbiglio" "FC52" "LDF" "4" "D" "3293" 771 "word" "word" 63 1 617 1 "word" "bisbiglio" 1.415 9 "simple" 2.05 2.05 NA NA NA
"bisbiglio" "AB9" "LDF" "3" "D" "3215" 1716 "word" "word" 49 1 1095 1 "word" "bisbiglio" 1.415 9 "simple" 2.05 2.05 NA NA NA
"bisbiglio" "EV51" "LDF" "3" "D" "3215" 884 "word" "word" 57 1 811 1 "word" "bisbiglio" 1.415 9 "simple" 2.05 2.05 NA NA NA
"bombesco" "FC52" "LDF" "4" "D" "1249" 858 "nonword" "nonword" 92 1 1302 0 "nonword" "bomba" 3.81 8 "pseudoword" 1 2.8 4.554 "esco" 0.322583465205324
"bombesco" "GC46" "LDF" "4" "D" "1249" 644 "nonword" "nonword" 86 1 1196 1 "nonword" "bomba" 3.81 8 "pseudoword" 1 2.8 4.554 "esco" 0.322583465205324
"bombesco" "GP40" "LDF" "4" "D" "1249" 865 "nonword" "nonword" 94 1 1139 1 "nonword" "bomba" 3.81 8 "pseudoword" 1 2.8 4.554 "esco" 0.322583465205324
"bombesco" "ACV34" "LDF" "4" "S" "1249" 635 "nonword" "nonword" 64 1 545 1 "nonword" "bomba" 3.81 8 "pseudoword" 1 2.8 4.554 "esco" 0.322583465205324
"bombesco" "ADB4" "LDF" "4" "D" "1249" 1023 "nonword" "nonword" 35 1 825 0 "nonword" "bomba" 3.81 8 "pseudoword" 1 2.8 4.554 "esco" 0.322583465205324
"bombesco" "VB10" "LDF" "4" "D" "1249" 771 "nonword" "nonword" 49 1 1444 1 "nonword" "bomba" 3.81 8 "pseudoword" 1 2.8 4.554 "esco" 0.322583465205324
"bombesco" "ADC28" "LDF" "4" "D" "1249" 620 "nonword" "nonword" 64 1 505 1 "nonword" "bomba" 3.81 8 "pseudoword" 1 2.8 4.554 "esco" 0.322583465205324
"bombesco" "MC16" "LDF" "4" "D" "1249" 861 "word" "nonword" 19 0 1289 1 "nonword" "bomba" 3.81 8 "pseudoword" 1 2.8 4.554 "esco" 0.322583465205324
"bombesco" "LJ22" "LDF" "4" "D" "1249" 578 "word" "nonword" 92 0 719 0 "nonword" "bomba" 3.81 8 "pseudoword" 1 2.8 4.554 "esco" 0.322583465205324
"borsuto" "AF8" "LDF" "2" "D" "1079" 651 "nonword" "nonword" 88 1 1118 0 "nonword" "borsa" 3.855 7 "pseudoword" 1 2 5.533 "uto" 0.939808302288655
"borsuto" "IF14" "LDF" "2" "D" "1079" 714 "nonword" "nonword" 92 1 782 1 "nonword" "borsa" 3.855 7 "pseudoword" 1 2 5.533 "uto" 0.939808302288655
"borsuto" "SDC32" "LDF" "2" "D" "1079" 862 "nonword" "nonword" 80 1 552 1 "nonword" "borsa" 3.855 7 "pseudoword" 1 2 5.533 "uto" 0.939808302288655
"borsuto" "MB38" "LDF" "2" "D" "1079" 814 "nonword" "nonword" 88 1 1163 0 "nonword" "borsa" 3.855 7 "pseudoword" 1 2 5.533 "uto" 0.939808302288655
"borsuto" "AR50" "LDF" "2" "D" "1079" 1219 "nonword" "nonword" 51 1 696 1 "nonword" "borsa" 3.855 7 "pseudoword" 1 2 5.533 "uto" 0.939808302288655
"borsuto" "DC2" "LDF" "2" "D" "1079" 547 "nonword" "nonword" 25 1 852 1 "nonword" "borsa" 3.855 7 "pseudoword" 1 2 5.533 "uto" 0.939808302288655
"borsuto" "MC26" "LDF" "2" "D" "1079" 563 "nonword" "nonword" 68 1 405 0 "nonword" "borsa" 3.855 7 "pseudoword" 1 2 5.533 "uto" 0.939808302288655
"borsuto" "LC44" "LDF" "2" "D" "1079" 468 "word" "nonword" 72 0 587 1 "nonword" "borsa" 3.855 7 "pseudoword" 1 2 5.533 "uto" 0.939808302288655
"borsuto" "FLB20" "LDF" "2" "D" "1079" 527 "nonword" "nonword" 51 1 600 1 "nonword" "borsa" 3.855 7 "pseudoword" 1 2 5.533 "uto" 0.939808302288655
"botolismo" "MT11" "LDF" "5" "S" "1334" 747 "nonword" "nonword" 78 1 784 1 "nonword" "botola" 2.462 9 "pseudoword" 1.6 2.85 4.12 "ismo" -0.375268331800694
"botolismo" "MN5" "LDF" "5" "S" "1334" 1114 "nonword" "nonword" 42 1 627 1 "nonword" "botola" 2.462 9 "pseudoword" 1.6 2.85 4.12 "ismo" -0.375268331800694
"botolismo" "GL47" "LDF" "5" "S" "1334" 842 "word" "nonword" 42 0 452 1 "nonword" "botola" 2.462 9 "pseudoword" 1.6 2.85 4.12 "ismo" -0.375268331800694
"botolismo" "AC29" "LDF" "5" "D" "1334" 1608 "nonword" "nonword" 81 1 1078 1 "nonword" "botola" 2.462 9 "pseudoword" 1.6 2.85 4.12 "ismo" -0.375268331800694
"botolismo" "AB53" "LDF" "5" "D" "1334" 906 "word" "nonword" 35 0 993 1 "nonword" "botola" 2.462 9 "pseudoword" 1.6 2.85 4.12 "ismo" -0.375268331800694
"botolismo" "RS56" "LDF" "5" "D" "1334" 584 "nonword" "nonword" 42 1 629 1 "nonword" "botola" 2.462 9 "pseudoword" 1.6 2.85 4.12 "ismo" -0.375268331800694
"botolismo" "SB35" "LDF" "5" "D" "1334" 799 "nonword" "nonword" 29 1 829 1 "nonword" "botola" 2.462 9 "pseudoword" 1.6 2.85 4.12 "ismo" -0.375268331800694
"botolismo" "SP17" "LDF" "5" "D" "1334" 1191 "nonword" "nonword" 76 1 1126 1 "nonword" "botola" 2.462 9 "pseudoword" 1.6 2.85 4.12 "ismo" -0.375268331800694
"botolismo" "SS41" "LDF" "5" "D" "1334" 798 "nonword" "nonword" 81 1 736 0 "nonword" "botola" 2.462 9 "pseudoword" 1.6 2.85 4.12 "ismo" -0.375268331800694
"botolismo" "SE23" "LDF" "5" "D" "1334" 0 "NoResponse" "nonword" 27 0 1952 1 "nonword" "botola" 2.462 9 "pseudoword" 1.6 2.85 4.12 "ismo" -0.375268331800694
"bozzoluto" "CF1" "LDF" "1" "D" "2038" 504 "word" "word" 95 1 553 1 "word" "bozzolo" 2.025 9 "derived" 1.9 3 5.533 "uto" NA
"bozzoluto" "AC43" "LDF" "1" "D" "2038" 638 "nonword" "word" 95 0 730 1 "word" "bozzolo" 2.025 9 "derived" 1.9 3 5.533 "uto" NA
"bozzoluto" "EP37" "LDF" "1" "D" "2038" 848 "nonword" "word" 51 0 874 1 "word" "bozzolo" 2.025 9 "derived" 1.9 3 5.533 "uto" NA
"bozzoluto" "EM13" "LDF" "1" "D" "2038" 915 "nonword" "word" 61 0 682 1 "word" "bozzolo" 2.025 9 "derived" 1.9 3 5.533 "uto" NA
"bozzoluto" "DM7" "LDF" "1" "D" "2038" 765 "word" "word" 67 1 912 0 "word" "bozzolo" 2.025 9 "derived" 1.9 3 5.533 "uto" NA
"bozzoluto" "FD55" "LDF" "1" "D" "2038" 681 "word" "word" 41 1 631 1 "word" "bozzolo" 2.025 9 "derived" 1.9 3 5.533 "uto" NA
"bozzoluto" "VA49" "LDF" "1" "D" "2038" 585 "word" "word" 52 1 577 1 "word" "bozzolo" 2.025 9 "derived" 1.9 3 5.533 "uto" NA
"bozzoluto" "MVT19" "LDF" "1" "D" "2038" 1035 "word" "word" 41 1 942 1 "word" "bozzolo" 2.025 9 "derived" 1.9 3 5.533 "uto" NA
"bozzoluto" "DS31" "LDF" "1" "D" "2038" 1189 "word" "word" 22 1 516 1 "word" "bozzolo" 2.025 9 "derived" 1.9 3 5.533 "uto" NA
"bozzoluto" "AG25" "LDF" "1" "D" "2038" 779 "nonword" "word" 95 0 793 1 "word" "bozzolo" 2.025 9 "derived" 1.9 3 5.533 "uto" NA
"bronzeo" "FC39" "LDF" "3" "D" "2202" 921 "word" "word" 33 1 1140 1 "word" "bronzo" 2.456 7 "derived" 1.3 1.8 4.696 "eo" NA
"bronzeo" "AV45" "LDF" "3" "D" "2202" 1092 "word" "word" 37 1 725 1 "word" "bronzo" 2.456 7 "derived" 1.3 1.8 4.696 "eo" NA
"bronzeo" "LM21" "LDF" "3" "D" "2202" 669 "word" "word" 60 1 728 1 "word" "bronzo" 2.456 7 "derived" 1.3 1.8 4.696 "eo" NA
"bronzeo" "MC3" "LDF" "3" "D" "2202" 976 "word" "word" 55 1 888 1 "word" "bronzo" 2.456 7 "derived" 1.3 1.8 4.696 "eo" NA
"bronzeo" "MP15" "LDF" "3" "D" "2202" 743 "word" "word" 79 1 616 1 "word" "bronzo" 2.456 7 "derived" 1.3 1.8 4.696 "eo" NA
"bronzeo" "GG27" "LDF" "3" "D" "2202" 711 "nonword" "word" 60 0 759 1 "word" "bronzo" 2.456 7 "derived" 1.3 1.8 4.696 "eo" NA
"bronzeo" "EV51" "LDF" "3" "D" "2202" 798 "word" "word" 55 1 1336 1 "word" "bronzo" 2.456 7 "derived" 1.3 1.8 4.696 "eo" NA
"bronzeo" "AB9" "LDF" "3" "D" "2202" 1021 "word" "word" 52 1 926 1 "word" "bronzo" 2.456 7 "derived" 1.3 1.8 4.696 "eo" NA
"bronzeo" "CS33" "LDF" "3" "D" "2202" 750 "word" "word" 60 1 860 1 "word" "bronzo" 2.456 7 "derived" 1.3 1.8 4.696 "eo" NA
"bruscamente" "SP12" "LDF" "6" "S" "2438" 712 "word" "word" 82 1 662 1 "word" "brusco" 2.307 11 "derived" 1.65 2.9 5.521 "mente" NA
"bruscamente" "GS36" "LDF" "6" "D" "2438" 649 "word" "word" 80 1 898 1 "word" "brusco" 2.307 11 "derived" 1.65 2.9 5.521 "mente" NA
"bruscamente" "MV48" "LDF" "6" "D" "2438" 615 "word" "word" 88 1 605 1 "word" "brusco" 2.307 11 "derived" 1.65 2.9 5.521 "mente" NA
"bruscamente" "GDL30" "LDF" "6" "D" "2438" 892 "word" "word" 88 1 771 1 "word" "brusco" 2.307 11 "derived" 1.65 2.9 5.521 "mente" NA
"bruscamente" "ZF42" "LDF" "6" "D" "2438" 821 "word" "word" 69 1 720 1 "word" "brusco" 2.307 11 "derived" 1.65 2.9 5.521 "mente" NA
"bruscamente" "GF54" "LDF" "6" "D" "2438" 555 "word" "word" 80 1 621 1 "word" "brusco" 2.307 11 "derived" 1.65 2.9 5.521 "mente" NA
"bruscamente" "CC6" "LDF" "6" "D" "2438" 771 "word" "word" 66 1 860 1 "word" "brusco" 2.307 11 "derived" 1.65 2.9 5.521 "mente" NA
"bruscamente" "AA18" "LDF" "6" "D" "2438" 837 "word" "word" 66 1 977 1 "word" "brusco" 2.307 11 "derived" 1.65 2.9 5.521 "mente" NA
"bruscamente" "RE24" "LDF" "6" "S" "2438" 765 "word" "word" 80 1 1705 1 "word" "brusco" 2.307 11 "derived" 1.65 2.9 5.521 "mente" NA
"burlesco" "AG25" "LDF" "1" "D" "2028" 621 "word" "word" 84 1 476 1 "word" "burla" 2.093 8 "derived" 1.15 2.5 4.554 "esco" NA
"burlesco" "VA49" "LDF" "1" "D" "2028" 621 "word" "word" 20 1 651 1 "word" "burla" 2.093 8 "derived" 1.15 2.5 4.554 "esco" NA
"burlesco" "FD55" "LDF" "1" "D" "2028" 676 "word" "word" 26 1 1311 1 "word" "burla" 2.093 8 "derived" 1.15 2.5 4.554 "esco" NA
"burlesco" "EM13" "LDF" "1" "D" "2028" 811 "word" "word" 93 1 982 1 "word" "burla" 2.093 8 "derived" 1.15 2.5 4.554 "esco" NA
"burlesco" "CF1" "LDF" "1" "D" "2028" 497 "word" "word" 84 1 402 1 "word" "burla" 2.093 8 "derived" 1.15 2.5 4.554 "esco" NA
"burlesco" "DM7" "LDF" "1" "D" "2028" 1371 "nonword" "word" 76 0 867 0 "word" "burla" 2.093 8 "derived" 1.15 2.5 4.554 "esco" NA
"burlesco" "AC43" "LDF" "1" "D" "2028" 582 "word" "word" 84 1 595 1 "word" "burla" 2.093 8 "derived" 1.15 2.5 4.554 "esco" NA
"burlesco" "EP37" "LDF" "1" "D" "2028" 1054 "word" "word" 73 1 988 1 "word" "burla" 2.093 8 "derived" 1.15 2.5 4.554 "esco" NA
"burlesco" "MVT19" "LDF" "1" "D" "2028" 805 "word" "word" 26 1 996 1 "word" "burla" 2.093 8 "derived" 1.15 2.5 4.554 "esco" NA
"burlesco" "DS31" "LDF" "1" "D" "2028" 729 "word" "word" 53 1 725 1 "word" "burla" 2.093 8 "derived" 1.15 2.5 4.554 "esco" NA
"bustizia" "AB9" "LDF" "3" "D" "1157" 604 "nonword" "nonword" 88 1 648 1 "nonword" "busta" 3.266 8 "pseudoword" 1.1 2.2 4.763 "izia" -1.03694754485237
"bustizia" "CS33" "LDF" "3" "D" "1157" 1184 "nonword" "nonword" 51 1 640 1 "nonword" "busta" 3.266 8 "pseudoword" 1.1 2.2 4.763 "izia" -1.03694754485237
"bustizia" "AV45" "LDF" "3" "D" "1157" 796 "nonword" "nonword" 92 1 841 1 "nonword" "busta" 3.266 8 "pseudoword" 1.1 2.2 4.763 "izia" -1.03694754485237
"bustizia" "MP15" "LDF" "3" "D" "1157" 725 "nonword" "nonword" 71 1 901 1 "nonword" "busta" 3.266 8 "pseudoword" 1.1 2.2 4.763 "izia" -1.03694754485237
"bustizia" "LM21" "LDF" "3" "D" "1157" 641 "nonword" "nonword" 51 1 533 1 "nonword" "busta" 3.266 8 "pseudoword" 1.1 2.2 4.763 "izia" -1.03694754485237
"bustizia" "EV51" "LDF" "3" "D" "1157" 814 "nonword" "nonword" 68 1 617 0 "nonword" "busta" 3.266 8 "pseudoword" 1.1 2.2 4.763 "izia" -1.03694754485237
"bustizia" "GG27" "LDF" "3" "D" "1157" 783 "nonword" "nonword" 51 1 601 1 "nonword" "busta" 3.266 8 "pseudoword" 1.1 2.2 4.763 "izia" -1.03694754485237
"bustizia" "FC39" "LDF" "3" "D" "1157" 928 "nonword" "nonword" 58 1 699 1 "nonword" "busta" 3.266 8 "pseudoword" 1.1 2.2 4.763 "izia" -1.03694754485237
"bustizia" "MC3" "LDF" "3" "D" "1157" 747 "nonword" "nonword" 68 1 884 1 "nonword" "busta" 3.266 8 "pseudoword" 1.1 2.2 4.763 "izia" -1.03694754485237
"caliceria" "VB10" "LDF" "4" "D" "1243" 517 "word" "nonword" 18 0 452 1 "nonword" "calice" 2.45 9 "pseudoword" 1.35 2.8 4.452 "eria" 0.628261704205457
"caliceria" "GC46" "LDF" "4" "D" "1243" 506 "word" "nonword" 68 0 990 1 "nonword" "calice" 2.45 9 "pseudoword" 1.35 2.8 4.452 "eria" 0.628261704205457
"caliceria" "FC52" "LDF" "4" "D" "1243" 884 "nonword" "nonword" 43 1 887 0 "nonword" "calice" 2.45 9 "pseudoword" 1.35 2.8 4.452 "eria" 0.628261704205457
"caliceria" "GP40" "LDF" "4" "D" "1243" 731 "nonword" "nonword" 88 1 795 1 "nonword" "calice" 2.45 9 "pseudoword" 1.35 2.8 4.452 "eria" 0.628261704205457
"caliceria" "LJ22" "LDF" "4" "D" "1243" 816 "nonword" "nonword" 43 1 781 1 "nonword" "calice" 2.45 9 "pseudoword" 1.35 2.8 4.452 "eria" 0.628261704205457
"caliceria" "MC16" "LDF" "4" "D" "1243" 931 "nonword" "nonword" 81 1 1085 1 "nonword" "calice" 2.45 9 "pseudoword" 1.35 2.8 4.452 "eria" 0.628261704205457
"caliceria" "ADC28" "LDF" "4" "D" "1243" 653 "nonword" "nonword" 19 1 481 1 "nonword" "calice" 2.45 9 "pseudoword" 1.35 2.8 4.452 "eria" 0.628261704205457
"caliceria" "ACV34" "LDF" "4" "S" "1243" 658 "nonword" "nonword" 19 1 707 1 "nonword" "calice" 2.45 9 "pseudoword" 1.35 2.8 4.452 "eria" 0.628261704205457
"caliceria" "ADB4" "LDF" "4" "D" "1243" 1938 "nonword" "nonword" 39 1 1196 1 "nonword" "calice" 2.45 9 "pseudoword" 1.35 2.8 4.452 "eria" 0.628261704205457
"calzismo" "SS41" "LDF" "5" "D" "1323" 905 "nonword" "nonword" 61 1 1331 1 "nonword" "calza" 2.367 8 "pseudoword" 1 2.45 4.12 "ismo" 0.13122454375478
"calzismo" "MN5" "LDF" "5" "S" "1323" 820 "word" "nonword" 78 0 994 1 "nonword" "calza" 2.367 8 "pseudoword" 1 2.45 4.12 "ismo" 0.13122454375478
"calzismo" "AC29" "LDF" "5" "D" "1323" 1450 "nonword" "nonword" 27 1 1014 1 "nonword" "calza" 2.367 8 "pseudoword" 1 2.45 4.12 "ismo" 0.13122454375478
"calzismo" "GL47" "LDF" "5" "S" "1323" 762 "nonword" "nonword" 78 1 964 1 "nonword" "calza" 2.367 8 "pseudoword" 1 2.45 4.12 "ismo" 0.13122454375478
"calzismo" "RS56" "LDF" "5" "D" "1323" 728 "nonword" "nonword" 78 1 803 1 "nonword" "calza" 2.367 8 "pseudoword" 1 2.45 4.12 "ismo" 0.13122454375478
"calzismo" "SB35" "LDF" "5" "D" "1323" 908 "nonword" "nonword" 52 1 1311 1 "nonword" "calza" 2.367 8 "pseudoword" 1 2.45 4.12 "ismo" 0.13122454375478
"calzismo" "AB53" "LDF" "5" "D" "1323" 904 "word" "nonword" 85 0 565 1 "nonword" "calza" 2.367 8 "pseudoword" 1 2.45 4.12 "ismo" 0.13122454375478
"calzismo" "SE23" "LDF" "5" "D" "1323" 1224 "nonword" "nonword" 64 1 1090 1 "nonword" "calza" 2.367 8 "pseudoword" 1 2.45 4.12 "ismo" 0.13122454375478
"calzismo" "SP17" "LDF" "5" "D" "1323" 664 "nonword" "nonword" 20 1 782 1 "nonword" "calza" 2.367 8 "pseudoword" 1 2.45 4.12 "ismo" 0.13122454375478
"calzismo" "MT11" "LDF" "5" "S" "1323" 751 "nonword" "nonword" 94 1 1657 1 "nonword" "calza" 2.367 8 "pseudoword" 1 2.45 4.12 "ismo" 0.13122454375478
"camodilla" "MP15" "LDF" "3" "D" "4226" 709 "nonword" "nonword" 28 1 1137 1 "nonword" NA NA 9 "simple" NA 2.75 NA NA NA
"camodilla" "CF1" "LDF" "1" "D" "4070" 744 "nonword" "nonword" 47 1 570 1 "nonword" NA NA 9 "simple" NA 2.75 NA NA NA
"camodilla" "AV45" "LDF" "3" "D" "4226" 766 "nonword" "nonword" 71 1 689 1 "nonword" NA NA 9 "simple" NA 2.75 NA NA NA
"camodilla" "LJ22" "LDF" "4" "D" "4304" 758 "nonword" "nonword" 47 1 615 1 "nonword" NA NA 9 "simple" NA 2.75 NA NA NA
"camodilla" "MVT19" "LDF" "1" "D" "4070" 912 "nonword" "nonword" 63 1 1266 1 "nonword" NA NA 9 "simple" NA 2.75 NA NA NA
"camodilla" "EM13" "LDF" "1" "D" "4070" 850 "nonword" "nonword" 20 1 942 1 "nonword" NA NA 9 "simple" NA 2.75 NA NA NA
"camodilla" "GS36" "LDF" "6" "D" "4460" 757 "nonword" "nonword" 47 1 842 1 "nonword" NA NA 9 "simple" NA 2.75 NA NA NA
"camodilla" "ACV34" "LDF" "4" "S" "4304" 646 "nonword" "nonword" 20 1 658 1 "nonword" NA NA 9 "simple" NA 2.75 NA NA NA
"camodilla" "SP17" "LDF" "5" "D" "4382" 928 "nonword" "nonword" 47 1 960 1 "nonword" NA NA 9 "simple" NA 2.75 NA NA NA
"camodilla" "FC39" "LDF" "3" "D" "4226" 857 "nonword" "nonword" 78 1 907 1 "nonword" NA NA 9 "simple" NA 2.75 NA NA NA
"camodilla" "AG25" "LDF" "1" "D" "4070" 846 "nonword" "nonword" 47 1 847 1 "nonword" NA NA 9 "simple" NA 2.75 NA NA NA
"camodilla" "GF54" "LDF" "6" "D" "4460" 579 "nonword" "nonword" 47 1 535 1 "nonword" NA NA 9 "simple" NA 2.75 NA NA NA
"camodilla" "RS56" "LDF" "5" "D" "4382" 552 "nonword" "nonword" 20 1 646 0 "nonword" NA NA 9 "simple" NA 2.75 NA NA NA
"camodilla" "AB53" "LDF" "5" "D" "4382" 677 "nonword" "nonword" 26 1 961 1 "nonword" NA NA 9 "simple" NA 2.75 NA NA NA
"camodilla" "MB38" "LDF" "2" "D" "4148" 714 "nonword" "nonword" 31 1 774 1 "nonword" NA NA 9 "simple" NA 2.75 NA NA NA
"camodilla" "GDL30" "LDF" "6" "D" "4460" 1023 "nonword" "nonword" 20 1 649 1 "nonword" NA NA 9 "simple" NA 2.75 NA NA NA
"camodilla" "EP37" "LDF" "1" "D" "4070" 1223 "nonword" "nonword" 91 1 630 1 "nonword" NA NA 9 "simple" NA 2.75 NA NA NA
"camodilla" "MC26" "LDF" "2" "D" "4148" 593 "nonword" "nonword" 63 1 472 0 "nonword" NA NA 9 "simple" NA 2.75 NA NA NA
"camodilla" "SB35" "LDF" "5" "D" "4382" 850 "nonword" "nonword" 90 1 898 1 "nonword" NA NA 9 "simple" NA 2.75 NA NA NA
"camodilla" "VB10" "LDF" "4" "D" "4304" 595 "nonword" "nonword" 22 1 557 1 "nonword" NA NA 9 "simple" NA 2.75 NA NA NA
"camodilla" "GL47" "LDF" "5" "S" "4382" 690 "nonword" "nonword" 20 1 651 1 "nonword" NA NA 9 "simple" NA 2.75 NA NA NA
"camodilla" "AC29" "LDF" "5" "D" "4382" 963 "nonword" "nonword" 31 1 670 1 "nonword" NA NA 9 "simple" NA 2.75 NA NA NA
"camodilla" "ZF42" "LDF" "6" "D" "4460" 687 "nonword" "nonword" 22 1 459 1 "nonword" NA NA 9 "simple" NA 2.75 NA NA NA
"camodilla" "SS41" "LDF" "5" "D" "4382" 799 "nonword" "nonword" 39 1 672 1 "nonword" NA NA 9 "simple" NA 2.75 NA NA NA
"camodilla" "SP12" "LDF" "6" "S" "4460" 724 "nonword" "nonword" 20 1 774 1 "nonword" NA NA 9 "simple" NA 2.75 NA NA NA
"camodilla" "FLB20" "LDF" "2" "D" "4148" 754 "nonword" "nonword" 47 1 597 1 "nonword" NA NA 9 "simple" NA 2.75 NA NA NA
"camodilla" "DC2" "LDF" "2" "D" "4148" 740 "nonword" "nonword" 79 1 698 1 "nonword" NA NA 9 "simple" NA 2.75 NA NA NA
"camodilla" "GC46" "LDF" "4" "D" "4304" 1057 "nonword" "nonword" 71 1 752 1 "nonword" NA NA 9 "simple" NA 2.75 NA NA NA
"camodilla" "IF14" "LDF" "2" "D" "4148" 714 "nonword" "nonword" 26 1 677 1 "nonword" NA NA 9 "simple" NA 2.75 NA NA NA
"camodilla" "GG27" "LDF" "3" "D" "4226" 861 "nonword" "nonword" 47 1 898 1 "nonword" NA NA 9 "simple" NA 2.75 NA NA NA
"camodilla" "ADC28" "LDF" "4" "D" "4304" 678 "nonword" "nonword" 20 1 653 1 "nonword" NA NA 9 "simple" NA 2.75 NA NA NA
"camodilla" "FD55" "LDF" "1" "D" "4070" 1061 "nonword" "nonword" 63 1 0 0 "nonword" NA NA 9 "simple" NA 2.75 NA NA NA
"camodilla" "LC44" "LDF" "2" "D" "4148" 651 "nonword" "nonword" 18 1 448 1 "nonword" NA NA 9 "simple" NA 2.75 NA NA NA
"camodilla" "AF8" "LDF" "2" "D" "4148" 552 "nonword" "nonword" 31 1 610 1 "nonword" NA NA 9 "simple" NA 2.75 NA NA NA
"camodilla" "GP40" "LDF" "4" "D" "4304" 795 "nonword" "nonword" 87 1 783 1 "nonword" NA NA 9 "simple" NA 2.75 NA NA NA
"camodilla" "AC43" "LDF" "1" "D" "4070" 967 "nonword" "nonword" 47 1 821 1 "nonword" NA NA 9 "simple" NA 2.75 NA NA NA
"camodilla" "MV48" "LDF" "6" "D" "4460" 832 "nonword" "nonword" 20 1 584 1 "nonword" NA NA 9 "simple" NA 2.75 NA NA NA
"camodilla" "DS31" "LDF" "1" "D" "4070" 625 "nonword" "nonword" 84 1 706 1 "nonword" NA NA 9 "simple" NA 2.75 NA NA NA
"camodilla" "VA49" "LDF" "1" "D" "4070" 681 "nonword" "nonword" 61 1 769 0 "nonword" NA NA 9 "simple" NA 2.75 NA NA NA
"camodilla" "MT11" "LDF" "5" "S" "4382" 890 "nonword" "nonword" 55 1 583 0 "nonword" NA NA 9 "simple" NA 2.75 NA NA NA
"camodilla" "SDC32" "LDF" "2" "D" "4148" 874 "nonword" "nonword" 73 1 704 1 "nonword" NA NA 9 "simple" NA 2.75 NA NA NA
"camodilla" "AR50" "LDF" "2" "D" "4148" 767 "nonword" "nonword" 47 1 836 1 "nonword" NA NA 9 "simple" NA 2.75 NA NA NA
"camodilla" "SE23" "LDF" "5" "D" "4382" 1044 "nonword" "nonword" 78 1 0 0 "nonword" NA NA 9 "simple" NA 2.75 NA NA NA
"camodilla" "CC6" "LDF" "6" "D" "4460" 1051 "nonword" "nonword" 78 1 941 1 "nonword" NA NA 9 "simple" NA 2.75 NA NA NA
"camodilla" "AA18" "LDF" "6" "D" "4460" 661 "nonword" "nonword" 31 1 766 1 "nonword" NA NA 9 "simple" NA 2.75 NA NA NA
"camodilla" "EV51" "LDF" "3" "D" "4226" 911 "nonword" "nonword" 63 1 1254 1 "nonword" NA NA 9 "simple" NA 2.75 NA NA NA
"camodilla" "MN5" "LDF" "5" "S" "4382" 835 "nonword" "nonword" 20 1 997 0 "nonword" NA NA 9 "simple" NA 2.75 NA NA NA
"camodilla" "ADB4" "LDF" "4" "D" "4304" 1196 "nonword" "nonword" 38 1 804 1 "nonword" NA NA 9 "simple" NA 2.75 NA NA NA
"camodilla" "AB9" "LDF" "3" "D" "4226" 776 "nonword" "nonword" 31 1 887 1 "nonword" NA NA 9 "simple" NA 2.75 NA NA NA
"camodilla" "MC16" "LDF" "4" "D" "4304" 840 "nonword" "nonword" 78 1 941 1 "nonword" NA NA 9 "simple" NA 2.75 NA NA NA
"camodilla" "LM21" "LDF" "3" "D" "4226" 868 "nonword" "nonword" 47 1 876 1 "nonword" NA NA 9 "simple" NA 2.75 NA NA NA
"camodilla" "DM7" "LDF" "1" "D" "4070" 1196 "nonword" "nonword" 21 1 1103 1 "nonword" NA NA 9 "simple" NA 2.75 NA NA NA
"camodilla" "RE24" "LDF" "6" "S" "4460" 1009 "nonword" "nonword" 62 1 1374 1 "nonword" NA NA 9 "simple" NA 2.75 NA NA NA
"camodilla" "CS33" "LDF" "3" "D" "4226" 716 "nonword" "nonword" 47 1 731 1 "nonword" NA NA 9 "simple" NA 2.75 NA NA NA
"camodilla" "MC3" "LDF" "3" "D" "4226" 864 "nonword" "nonword" 63 1 1109 1 "nonword" NA NA 9 "simple" NA 2.75 NA NA NA
"camodilla" "FC52" "LDF" "4" "D" "4304" 1445 "word" "nonword" 47 0 1059 1 "nonword" NA NA 9 "simple" NA 2.75 NA NA NA
"cannellente" "MV48" "LDF" "6" "D" "1403" 1074 "nonword" "nonword" 49 1 782 1 "nonword" "cannella" 2.556 11 "pseudoword" 1.65 2.95 5.879 "ente" -0.704878205014181
"cannellente" "GS36" "LDF" "6" "D" "1403" 1075 "nonword" "nonword" 36 1 583 1 "nonword" "cannella" 2.556 11 "pseudoword" 1.65 2.95 5.879 "ente" -0.704878205014181
"cannellente" "ZF42" "LDF" "6" "D" "1403" 565 "nonword" "nonword" 37 1 720 1 "nonword" "cannella" 2.556 11 "pseudoword" 1.65 2.95 5.879 "ente" -0.704878205014181
"cannellente" "CC6" "LDF" "6" "D" "1403" 768 "nonword" "nonword" 92 1 849 1 "nonword" "cannella" 2.556 11 "pseudoword" 1.65 2.95 5.879 "ente" -0.704878205014181
"cannellente" "AA18" "LDF" "6" "D" "1403" 846 "nonword" "nonword" 74 1 768 1 "nonword" "cannella" 2.556 11 "pseudoword" 1.65 2.95 5.879 "ente" -0.704878205014181
"cannellente" "RE24" "LDF" "6" "S" "1403" 1189 "nonword" "nonword" 54 1 1159 1 "nonword" "cannella" 2.556 11 "pseudoword" 1.65 2.95 5.879 "ente" -0.704878205014181
"cannellente" "GDL30" "LDF" "6" "D" "1403" 1351 "nonword" "nonword" 49 1 762 1 "nonword" "cannella" 2.556 11 "pseudoword" 1.65 2.95 5.879 "ente" -0.704878205014181
"cannellente" "GF54" "LDF" "6" "D" "1403" 514 "nonword" "nonword" 36 1 459 1 "nonword" "cannella" 2.556 11 "pseudoword" 1.65 2.95 5.879 "ente" -0.704878205014181
"cannellente" "SP12" "LDF" "6" "S" "1403" 647 "nonword" "nonword" 36 1 772 0 "nonword" "cannella" 2.556 11 "pseudoword" 1.65 2.95 5.879 "ente" -0.704878205014181
"capelluto" "ACV34" "LDF" "4" "S" "2285" 438 "word" "word" 67 1 475 1 "word" "capello" 2.789 9 "derived" 1.25 2.85 5.533 "uto" NA
"capelluto" "VB10" "LDF" "4" "D" "2285" 661 "word" "word" 38 1 597 1 "word" "capello" 2.789 9 "derived" 1.25 2.85 5.533 "uto" NA
"capelluto" "GP40" "LDF" "4" "D" "2285" 635 "word" "word" 49 1 853 1 "word" "capello" 2.789 9 "derived" 1.25 2.85 5.533 "uto" NA
"capelluto" "ADC28" "LDF" "4" "D" "2285" 821 "nonword" "word" 67 0 633 1 "word" "capello" 2.789 9 "derived" 1.25 2.85 5.533 "uto" NA
"capelluto" "ADB4" "LDF" "4" "D" "2285" 637 "word" "word" 87 1 636 1 "word" "capello" 2.789 9 "derived" 1.25 2.85 5.533 "uto" NA
"capelluto" "LJ22" "LDF" "4" "D" "2285" 804 "word" "word" 50 1 1020 1 "word" "capello" 2.789 9 "derived" 1.25 2.85 5.533 "uto" NA
"capelluto" "MC16" "LDF" "4" "D" "2285" 1068 "word" "word" 56 1 840 1 "word" "capello" 2.789 9 "derived" 1.25 2.85 5.533 "uto" NA
"capelluto" "GC46" "LDF" "4" "D" "2285" 845 "word" "word" 94 1 1155 1 "word" "capello" 2.789 9 "derived" 1.25 2.85 5.533 "uto" NA
"capelluto" "FC52" "LDF" "4" "D" "2285" 989 "nonword" "word" 50 0 1332 0 "word" "capello" 2.789 9 "derived" 1.25 2.85 5.533 "uto" NA
"castigore" "AV45" "LDF" "3" "D" "1169" 810 "word" "nonword" 78 0 690 1 "nonword" "castigo" 2.551 9 "pseudoword" 1.75 2.55 5.703 "ore" -0.353371534519387
"castigore" "LM21" "LDF" "3" "D" "1169" 1020 "nonword" "nonword" 36 1 532 1 "nonword" "castigo" 2.551 9 "pseudoword" 1.75 2.55 5.703 "ore" -0.353371534519387
"castigore" "CS33" "LDF" "3" "D" "1169" 709 "nonword" "nonword" 36 1 595 1 "nonword" "castigo" 2.551 9 "pseudoword" 1.75 2.55 5.703 "ore" -0.353371534519387
"castigore" "FC39" "LDF" "3" "D" "1169" 1084 "nonword" "nonword" 92 1 1011 0 "nonword" "castigo" 2.551 9 "pseudoword" 1.75 2.55 5.703 "ore" -0.353371534519387
"castigore" "GG27" "LDF" "3" "D" "1169" 1100 "nonword" "nonword" 36 1 711 1 "nonword" "castigo" 2.551 9 "pseudoword" 1.75 2.55 5.703 "ore" -0.353371534519387
"castigore" "AB9" "LDF" "3" "D" "1169" 963 "nonword" "nonword" 74 1 866 0 "nonword" "castigo" 2.551 9 "pseudoword" 1.75 2.55 5.703 "ore" -0.353371534519387
"castigore" "MP15" "LDF" "3" "D" "1169" 857 "nonword" "nonword" 40 1 823 1 "nonword" "castigo" 2.551 9 "pseudoword" 1.75 2.55 5.703 "ore" -0.353371534519387
"castigore" "MC3" "LDF" "3" "D" "1169" 787 "word" "nonword" 83 0 784 1 "nonword" "castigo" 2.551 9 "pseudoword" 1.75 2.55 5.703 "ore" -0.353371534519387
"castigore" "EV51" "LDF" "3" "D" "1169" 693 "word" "nonword" 83 0 715 1 "nonword" "castigo" 2.551 9 "pseudoword" 1.75 2.55 5.703 "ore" -0.353371534519387
"caviatore" "GF54" "LDF" "6" "D" "1401" 730 "nonword" "nonword" 20 1 485 1 "nonword" "cavia" 2.354 9 "pseudoword" 1.1 1.95 4.763 "atore" -0.294659588712673
"caviatore" "RE24" "LDF" "6" "S" "1401" 1477 "word" "nonword" 90 0 798 1 "nonword" "cavia" 2.354 9 "pseudoword" 1.1 1.95 4.763 "atore" -0.294659588712673
"caviatore" "GS36" "LDF" "6" "D" "1401" 940 "nonword" "nonword" 20 1 764 1 "nonword" "cavia" 2.354 9 "pseudoword" 1.1 1.95 4.763 "atore" -0.294659588712673
"caviatore" "GDL30" "LDF" "6" "D" "1401" 1135 "nonword" "nonword" 78 1 1338 1 "nonword" "cavia" 2.354 9 "pseudoword" 1.1 1.95 4.763 "atore" -0.294659588712673
"caviatore" "SP12" "LDF" "6" "S" "1401" 772 "word" "nonword" 35 0 511 1 "nonword" "cavia" 2.354 9 "pseudoword" 1.1 1.95 4.763 "atore" -0.294659588712673
"caviatore" "MV48" "LDF" "6" "D" "1401" 932 "nonword" "nonword" 78 1 795 1 "nonword" "cavia" 2.354 9 "pseudoword" 1.1 1.95 4.763 "atore" -0.294659588712673
"caviatore" "ZF42" "LDF" "6" "D" "1401" 1103 "nonword" "nonword" 76 1 655 1 "nonword" "cavia" 2.354 9 "pseudoword" 1.1 1.95 4.763 "atore" -0.294659588712673
"caviatore" "CC6" "LDF" "6" "D" "1401" 640 "nonword" "nonword" 64 1 630 1 "nonword" "cavia" 2.354 9 "pseudoword" 1.1 1.95 4.763 "atore" -0.294659588712673
"caviatore" "AA18" "LDF" "6" "D" "1401" 800 "nonword" "nonword" 27 1 589 1 "nonword" "cavia" 2.354 9 "pseudoword" 1.1 1.95 4.763 "atore" -0.294659588712673
"caviglimente" "SP12" "LDF" "6" "S" "1395" 967 "nonword" "nonword" 80 1 897 1 "nonword" "caviglia" 2.9 12 "pseudoword" 1.95 3.8 5.521 "mente" -1.03946351983219
"caviglimente" "RE24" "LDF" "6" "S" "1395" 1459 "nonword" "nonword" 78 1 678 1 "nonword" "caviglia" 2.9 12 "pseudoword" 1.95 3.8 5.521 "mente" -1.03946351983219
"caviglimente" "CC6" "LDF" "6" "D" "1395" 1582 "nonword" "nonword" 71 1 744 1 "nonword" "caviglia" 2.9 12 "pseudoword" 1.95 3.8 5.521 "mente" -1.03946351983219
"caviglimente" "GF54" "LDF" "6" "D" "1395" 649 "nonword" "nonword" 81 1 555 1 "nonword" "caviglia" 2.9 12 "pseudoword" 1.95 3.8 5.521 "mente" -1.03946351983219
"caviglimente" "GDL30" "LDF" "6" "D" "1395" 1016 "nonword" "nonword" 86 1 899 1 "nonword" "caviglia" 2.9 12 "pseudoword" 1.95 3.8 5.521 "mente" -1.03946351983219
"caviglimente" "MV48" "LDF" "6" "D" "1395" 987 "nonword" "nonword" 86 1 653 1 "nonword" "caviglia" 2.9 12 "pseudoword" 1.95 3.8 5.521 "mente" -1.03946351983219
"caviglimente" "AA18" "LDF" "6" "D" "1395" 1124 "nonword" "nonword" 71 1 630 1 "nonword" "caviglia" 2.9 12 "pseudoword" 1.95 3.8 5.521 "mente" -1.03946351983219
"caviglimente" "GS36" "LDF" "6" "D" "1395" 456 "word" "nonword" 81 0 649 1 "nonword" "caviglia" 2.9 12 "pseudoword" 1.95 3.8 5.521 "mente" -1.03946351983219
"caviglimente" "ZF42" "LDF" "6" "D" "1395" 614 "nonword" "nonword" 70 1 821 1 "nonword" "caviglia" 2.9 12 "pseudoword" 1.95 3.8 5.521 "mente" -1.03946351983219
"cenerizia" "FLB20" "LDF" "2" "D" "1084" 514 "nonword" "nonword" 59 1 583 1 "nonword" "cenere" 2.887 9 "pseudoword" 1 2.9 4.763 "izia" -0.270935283483706
"cenerizia" "IF14" "LDF" "2" "D" "1084" 770 "nonword" "nonword" 18 1 489 1 "nonword" "cenere" 2.887 9 "pseudoword" 1 2.9 4.763 "izia" -0.270935283483706
"cenerizia" "AF8" "LDF" "2" "D" "1084" 644 "nonword" "nonword" 19 1 433 0 "nonword" "cenere" 2.887 9 "pseudoword" 1 2.9 4.763 "izia" -0.270935283483706
"cenerizia" "DC2" "LDF" "2" "D" "1084" 724 "nonword" "nonword" 39 1 629 0 "nonword" "cenere" 2.887 9 "pseudoword" 1 2.9 4.763 "izia" -0.270935283483706
"cenerizia" "MC26" "LDF" "2" "D" "1084" 684 "nonword" "nonword" 22 1 537 1 "nonword" "cenere" 2.887 9 "pseudoword" 1 2.9 4.763 "izia" -0.270935283483706
"cenerizia" "LC44" "LDF" "2" "D" "1084" 524 "nonword" "nonword" 34 1 467 0 "nonword" "cenere" 2.887 9 "pseudoword" 1 2.9 4.763 "izia" -0.270935283483706
"cenerizia" "SDC32" "LDF" "2" "D" "1084" 642 "nonword" "nonword" 19 1 734 1 "nonword" "cenere" 2.887 9 "pseudoword" 1 2.9 4.763 "izia" -0.270935283483706
"cenerizia" "AR50" "LDF" "2" "D" "1084" 736 "nonword" "nonword" 59 1 763 1 "nonword" "cenere" 2.887 9 "pseudoword" 1 2.9 4.763 "izia" -0.270935283483706
"cenerizia" "MB38" "LDF" "2" "D" "1084" 634 "nonword" "nonword" 19 1 621 0 "nonword" "cenere" 2.887 9 "pseudoword" 1 2.9 4.763 "izia" -0.270935283483706
"cestista" "AA18" "LDF" "6" "D" "2417" 815 "word" "word" 91 1 1361 1 "word" "cesto" 2.678 8 "derived" 1 1.95 4.903 "ista" NA
"cestista" "GF54" "LDF" "6" "D" "2417" 608 "word" "word" 85 1 562 1 "word" "cesto" 2.678 8 "derived" 1 1.95 4.903 "ista" NA
"cestista" "ZF42" "LDF" "6" "D" "2417" 543 "nonword" "word" 88 0 615 1 "word" "cesto" 2.678 8 "derived" 1 1.95 4.903 "ista" NA
"cestista" "GDL30" "LDF" "6" "D" "2417" 1381 "word" "word" 90 1 769 1 "word" "cesto" 2.678 8 "derived" 1 1.95 4.903 "ista" NA
"cestista" "MV48" "LDF" "6" "D" "2417" 644 "nonword" "word" 90 0 1342 1 "word" "cesto" 2.678 8 "derived" 1 1.95 4.903 "ista" NA
"cestista" "GS36" "LDF" "6" "D" "2417" 805 "nonword" "word" 85 0 481 1 "word" "cesto" 2.678 8 "derived" 1 1.95 4.903 "ista" NA
"cestista" "SP12" "LDF" "6" "S" "2417" 784 "nonword" "word" 91 0 818 1 "word" "cesto" 2.678 8 "derived" 1 1.95 4.903 "ista" NA
"cestista" "RE24" "LDF" "6" "S" "2417" 818 "nonword" "word" 27 0 930 1 "word" "cesto" 2.678 8 "derived" 1 1.95 4.903 "ista" NA
"cestista" "CC6" "LDF" "6" "D" "2417" 885 "nonword" "word" 75 0 626 1 "word" "cesto" 2.678 8 "derived" 1 1.95 4.903 "ista" NA
"chioscata" "LJ22" "LDF" "4" "D" "1257" 1066 "nonword" "nonword" 75 1 658 0 "nonword" "chiosco" 2.436 9 "pseudoword" 1.75 2.8 5.676 "ata" -0.20451760934692
"chioscata" "ADC28" "LDF" "4" "D" "1257" 682 "nonword" "nonword" 45 1 744 0 "nonword" "chiosco" 2.436 9 "pseudoword" 1.75 2.8 5.676 "ata" -0.20451760934692
"chioscata" "ACV34" "LDF" "4" "S" "1257" 745 "nonword" "nonword" 45 1 883 1 "nonword" "chiosco" 2.436 9 "pseudoword" 1.75 2.8 5.676 "ata" -0.20451760934692
"chioscata" "MC16" "LDF" "4" "D" "1257" 1043 "nonword" "nonword" 26 1 717 1 "nonword" "chiosco" 2.436 9 "pseudoword" 1.75 2.8 5.676 "ata" -0.20451760934692
"chioscata" "FC52" "LDF" "4" "D" "1257" 712 "nonword" "nonword" 75 1 948 1 "nonword" "chiosco" 2.436 9 "pseudoword" 1.75 2.8 5.676 "ata" -0.20451760934692
"chioscata" "VB10" "LDF" "4" "D" "1257" 763 "word" "nonword" 26 0 496 1 "nonword" "chiosco" 2.436 9 "pseudoword" 1.75 2.8 5.676 "ata" -0.20451760934692
"chioscata" "GC46" "LDF" "4" "D" "1257" 1000 "nonword" "nonword" 44 1 828 0 "nonword" "chiosco" 2.436 9 "pseudoword" 1.75 2.8 5.676 "ata" -0.20451760934692
"chioscata" "GP40" "LDF" "4" "D" "1257" 691 "nonword" "nonword" 35 1 858 1 "nonword" "chiosco" 2.436 9 "pseudoword" 1.75 2.8 5.676 "ata" -0.20451760934692
"chioscata" "ADB4" "LDF" "4" "D" "1257" 1028 "nonword" "nonword" 58 1 947 1 "nonword" "chiosco" 2.436 9 "pseudoword" 1.75 2.8 5.676 "ata" -0.20451760934692
"cicloide" "GP40" "LDF" "4" "D" "2278" 845 "nonword" "word" 85 0 818 1 "word" "ciclo" 3.027 8 "derived" 1.35 2.55 3.281 "oide" NA
"cicloide" "LJ22" "LDF" "4" "D" "2278" 777 "word" "word" 44 1 816 1 "word" "ciclo" 3.027 8 "derived" 1.35 2.55 3.281 "oide" NA
"cicloide" "VB10" "LDF" "4" "D" "2278" 1111 "word" "word" 23 1 595 1 "word" "ciclo" 3.027 8 "derived" 1.35 2.55 3.281 "oide" NA
"cicloide" "FC52" "LDF" "4" "D" "2278" 961 "nonword" "word" 44 0 884 1 "word" "ciclo" 3.027 8 "derived" 1.35 2.55 3.281 "oide" NA
"cicloide" "ACV34" "LDF" "4" "S" "2278" 1023 "nonword" "word" 21 0 646 1 "word" "ciclo" 3.027 8 "derived" 1.35 2.55 3.281 "oide" NA
"cicloide" "ADB4" "LDF" "4" "D" "2278" 1377 "word" "word" 36 1 1023 1 "word" "ciclo" 3.027 8 "derived" 1.35 2.55 3.281 "oide" NA
"cicloide" "ADC28" "LDF" "4" "D" "2278" 936 "nonword" "word" 21 0 678 1 "word" "ciclo" 3.027 8 "derived" 1.35 2.55 3.281 "oide" NA
"cicloide" "MC16" "LDF" "4" "D" "2278" 847 "word" "word" 79 1 840 1 "word" "ciclo" 3.027 8 "derived" 1.35 2.55 3.281 "oide" NA
"cicloide" "GC46" "LDF" "4" "D" "2278" 920 "word" "word" 66 1 620 1 "word" "ciclo" 3.027 8 "derived" 1.35 2.55 3.281 "oide" NA
"cignoismo" "RS56" "LDF" "5" "D" "1318" 579 "nonword" "nonword" 31 1 684 1 "nonword" "cigno" 2.548 9 "pseudoword" 1.45 2.95 4.12 "ismo" -0.513365034509659
"cignoismo" "AB53" "LDF" "5" "D" "1318" 1070 "nonword" "nonword" 18 1 485 1 "nonword" "cigno" 2.548 9 "pseudoword" 1.45 2.95 4.12 "ismo" -0.513365034509659
"cignoismo" "SS41" "LDF" "5" "D" "1318" 929 "nonword" "nonword" 44 1 466 1 "nonword" "cigno" 2.548 9 "pseudoword" 1.45 2.95 4.12 "ismo" -0.513365034509659
"cignoismo" "MT11" "LDF" "5" "S" "1318" 719 "nonword" "nonword" 72 1 591 1 "nonword" "cigno" 2.548 9 "pseudoword" 1.45 2.95 4.12 "ismo" -0.513365034509659
"cignoismo" "GL47" "LDF" "5" "S" "1318" 646 "nonword" "nonword" 31 1 486 1 "nonword" "cigno" 2.548 9 "pseudoword" 1.45 2.95 4.12 "ismo" -0.513365034509659
"cignoismo" "MN5" "LDF" "5" "S" "1318" 904 "nonword" "nonword" 31 1 533 1 "nonword" "cigno" 2.548 9 "pseudoword" 1.45 2.95 4.12 "ismo" -0.513365034509659
"cignoismo" "SB35" "LDF" "5" "D" "1318" 1162 "nonword" "nonword" 22 1 1110 1 "nonword" "cigno" 2.548 9 "pseudoword" 1.45 2.95 4.12 "ismo" -0.513365034509659
"cignoismo" "AC29" "LDF" "5" "D" "1318" 1017 "nonword" "nonword" 19 1 1130 1 "nonword" "cigno" 2.548 9 "pseudoword" 1.45 2.95 4.12 "ismo" -0.513365034509659
"cignoismo" "SP17" "LDF" "5" "D" "1318" 1624 "nonword" "nonword" 59 1 1132 1 "nonword" "cigno" 2.548 9 "pseudoword" 1.45 2.95 4.12 "ismo" -0.513365034509659
"cignoismo" "SE23" "LDF" "5" "D" "1318" 1590 "nonword" "nonword" 50 1 1415 0 "nonword" "cigno" 2.548 9 "pseudoword" 1.45 2.95 4.12 "ismo" -0.513365034509659
"cinghiore" "IF14" "LDF" "2" "D" "1089" 961 "nonword" "nonword" 85 1 612 1 "nonword" "cinghia" 2.38 9 "pseudoword" 1.85 2.75 5.703 "ore" -0.92189252431835
"cinghiore" "SDC32" "LDF" "2" "D" "1089" 966 "nonword" "nonword" 57 1 1359 1 "nonword" "cinghia" 2.38 9 "pseudoword" 1.85 2.75 5.703 "ore" -0.92189252431835
"cinghiore" "FLB20" "LDF" "2" "D" "1089" 595 "nonword" "nonword" 20 1 513 1 "nonword" "cinghia" 2.38 9 "pseudoword" 1.85 2.75 5.703 "ore" -0.92189252431835
"cinghiore" "MB38" "LDF" "2" "D" "1089" 910 "nonword" "nonword" 27 1 772 0 "nonword" "cinghia" 2.38 9 "pseudoword" 1.85 2.75 5.703 "ore" -0.92189252431835
"cinghiore" "MC26" "LDF" "2" "D" "1089" 658 "nonword" "nonword" 74 1 606 1 "nonword" "cinghia" 2.38 9 "pseudoword" 1.85 2.75 5.703 "ore" -0.92189252431835
"cinghiore" "LC44" "LDF" "2" "D" "1089" 691 "nonword" "nonword" 50 1 594 1 "nonword" "cinghia" 2.38 9 "pseudoword" 1.85 2.75 5.703 "ore" -0.92189252431835
"cinghiore" "AR50" "LDF" "2" "D" "1089" 786 "nonword" "nonword" 20 1 574 1 "nonword" "cinghia" 2.38 9 "pseudoword" 1.85 2.75 5.703 "ore" -0.92189252431835
"cinghiore" "DC2" "LDF" "2" "D" "1089" 811 "nonword" "nonword" 55 1 806 1 "nonword" "cinghia" 2.38 9 "pseudoword" 1.85 2.75 5.703 "ore" -0.92189252431835
"cinghiore" "AF8" "LDF" "2" "D" "1089" 575 "nonword" "nonword" 27 1 822 1 "nonword" "cinghia" 2.38 9 "pseudoword" 1.85 2.75 5.703 "ore" -0.92189252431835
"clorazione" "LC44" "LDF" "2" "D" "2120" 671 "word" "word" 51 1 691 1 "word" "cloro" 2.158 10 "derived" 1.3 2.3 5.249 "azione" NA
"clorazione" "AR50" "LDF" "2" "D" "2120" 609 "nonword" "word" 22 0 774 1 "word" "cloro" 2.158 10 "derived" 1.3 2.3 5.249 "azione" NA
"clorazione" "FLB20" "LDF" "2" "D" "2120" 516 "nonword" "word" 22 0 413 1 "word" "cloro" 2.158 10 "derived" 1.3 2.3 5.249 "azione" NA
"clorazione" "DC2" "LDF" "2" "D" "2120" 798 "nonword" "word" 56 0 811 1 "word" "cloro" 2.158 10 "derived" 1.3 2.3 5.249 "azione" NA
"clorazione" "IF14" "LDF" "2" "D" "2120" 963 "nonword" "word" 88 0 587 1 "word" "cloro" 2.158 10 "derived" 1.3 2.3 5.249 "azione" NA
"clorazione" "SDC32" "LDF" "2" "D" "2120" 1092 "nonword" "word" 55 0 692 1 "word" "cloro" 2.158 10 "derived" 1.3 2.3 5.249 "azione" NA
"clorazione" "AF8" "LDF" "2" "D" "2120" 822 "word" "word" 26 1 707 1 "word" "cloro" 2.158 10 "derived" 1.3 2.3 5.249 "azione" NA
