"trial_ID" "prime" "target_lexicality" "target" "experimentID" "subjectID" "rotation" "handedness" "RT" "response" "orderID" "acc" "rtPrec" "accPrec" "relatedness" "stem" "cluster" "unrelated" "condition" "prime_lexicality" "microblock" "lengthprime" "lengthtarget" "old20target" "old20prime" "freqtarget" "freqprime" "freqcluster"
"100103" "cotrusto" "nonword" "ralpa" "SL1_2" "MR34" "2" "D" 564 "nonword" 302 1 529 "1" "unrelated" "cotr" "usto" "cotra" "HF" "nonword" 18 8 5 1.3 2.45 0 0 4.81069614534731
"100103" "cotrusto" "nonword" "ralpa" "SL1_2" "SB4" "2" "D" 752 "nonword" 58 1 648 "1" "unrelated" "cotr" "usto" "cotra" "HF" "nonword" 18 8 5 1.3 2.45 0 0 4.81069614534731
"100103" "cotrusto" "nonword" "ralpa" "SL1_2" "EA1" "1" "D" 1183 "nonword" 194 1 628 "1" "unrelated" "cotr" "usto" "cotra" "HF" "nonword" 18 8 5 1.3 2.45 0 0 4.81069614534731
"100103" "cotrusto" "nonword" "ralpa" "SL1_2" "LA13" "1" "S" 676 "nonword" 231 1 516 "1" "unrelated" "cotr" "usto" "cotra" "HF" "nonword" 18 8 5 1.3 2.45 0 0 4.81069614534731
"100103" "cotrusto" "nonword" "ralpa" "SL1_2" "FC4" "2" "D" 658 "nonword" 58 1 581 "1" "unrelated" "cotr" "usto" "cotra" "HF" "nonword" 18 8 5 1.3 2.45 0 0 4.81069614534731
"100103" "cotrusto" "nonword" "ralpa" "SL1_2" "ATA27" "1" "D" 630 "nonword" 185 1 772 "1" "unrelated" "cotr" "usto" "cotra" "HF" "nonword" 18 8 5 1.3 2.45 0 0 4.81069614534731
"100103" "cotrusto" "nonword" "ralpa" "SL1_2" "SS7" "1" "D" 547 "nonword" 270 1 630 "1" "unrelated" "cotr" "usto" "cotra" "HF" "nonword" 18 8 5 1.3 2.45 0 0 4.81069614534731
"100103" "cotrusto" "nonword" "ralpa" "SL1_2" "GS36" "2" "D" 622 "nonword" 198 1 629 "1" "unrelated" "cotr" "usto" "cotra" "HF" "nonword" 18 8 5 1.3 2.45 0 0 4.81069614534731
"100103" "cotrusto" "nonword" "ralpa" "SL1_2" "VP3" "1" "S" 651 "nonword" 46 1 555 "1" "unrelated" "cotr" "usto" "cotra" "HF" "nonword" 18 8 5 1.3 2.45 0 0 4.81069614534731
"100103" "cotrusto" "nonword" "ralpa" "SL1_2" "FT31" "1" "D" 594 "nonword" 324 1 536 "1" "unrelated" "cotr" "usto" "cotra" "HF" "nonword" 18 8 5 1.3 2.45 0 0 4.81069614534731
"100103" "cotrusto" "nonword" "ralpa" "SL1_2" "AC26" "2" "D" 586 "nonword" 83 1 812 "1" "unrelated" "cotr" "usto" "cotra" "HF" "nonword" 18 8 5 1.3 2.45 0 0 4.81069614534731
"100103" "cotrusto" "nonword" "ralpa" "SL1_2" "FM12" "2" "D" 558 "nonword" 109 1 509 "1" "unrelated" "cotr" "usto" "cotra" "HF" "nonword" 18 8 5 1.3 2.45 0 0 4.81069614534731
"100103" "cotrusto" "nonword" "ralpa" "SL1_2" "EF44" "2" "D" 524 "nonword" 284 1 421 "1" "unrelated" "cotr" "usto" "cotra" "HF" "nonword" 18 8 5 1.3 2.45 0 0 4.81069614534731
"100103" "cotrusto" "nonword" "ralpa" "SL1_2" "ADC8" "2" "D" 584 "nonword" 19 1 463 "1" "unrelated" "cotr" "usto" "cotra" "HF" "nonword" 18 8 5 1.3 2.45 0 0 4.81069614534731
"100103" "cotrusto" "nonword" "ralpa" "SL1_2" "FB14" "2" "D" 666 "nonword" 51 1 523 "1" "unrelated" "cotr" "usto" "cotra" "HF" "nonword" 18 8 5 1.3 2.45 0 0 4.81069614534731
"100103" "cotrusto" "nonword" "ralpa" "SL1_2" "GI37" "1" "D" 710 "nonword" 328 1 505 "1" "unrelated" "cotr" "usto" "cotra" "HF" "nonword" 18 8 5 1.3 2.45 0 0 4.81069614534731
"100103" "cotrusto" "nonword" "ralpa" "SL1_2" "MB23" "1" "D" 816 "nonword" 209 1 579 "1" "unrelated" "cotr" "usto" "cotra" "HF" "nonword" 18 8 5 1.3 2.45 0 0 4.81069614534731
"100103" "cotrusto" "nonword" "ralpa" "SL1_2" "KN25" "1" "D" 558 "nonword" 291 1 540 "1" "unrelated" "cotr" "usto" "cotra" "HF" "nonword" 18 8 5 1.3 2.45 0 0 4.81069614534731
"100103" "cotrusto" "nonword" "ralpa" "SL1_2" "AD42" "2" "D" 604 "nonword" 133 1 484 "1" "unrelated" "cotr" "usto" "cotra" "HF" "nonword" 18 8 5 1.3 2.45 0 0 4.81069614534731
"100103" "cotrusto" "nonword" "ralpa" "SL1_2" "IM16" "2" "D" 635 "nonword" 274 1 852 "1" "unrelated" "cotr" "usto" "cotra" "HF" "nonword" 18 8 5 1.3 2.45 0 0 4.81069614534731
"100103" "cotrusto" "nonword" "ralpa" "SL1_2" "GP45" "1" "D" 728 "nonword" 273 1 674 "1" "unrelated" "cotr" "usto" "cotra" "HF" "nonword" 18 8 5 1.3 2.45 0 0 4.81069614534731
"100103" "cotrusto" "nonword" "ralpa" "SL1_2" "DV40" "2" "D" 588 "nonword" 314 1 569 "1" "unrelated" "cotr" "usto" "cotra" "HF" "nonword" 18 8 5 1.3 2.45 0 0 4.81069614534731
"100103" "cotrusto" "nonword" "ralpa" "SL1_2" "VB30" "2" "D" 481 "nonword" 90 1 444 "1" "unrelated" "cotr" "usto" "cotra" "HF" "nonword" 18 8 5 1.3 2.45 0 0 4.81069614534731
"100103" "cotrusto" "nonword" "ralpa" "SL1_2" "CM41" "1" "D" 612 "nonword" 272 1 589 "1" "unrelated" "cotr" "usto" "cotra" "HF" "nonword" 18 8 5 1.3 2.45 0 0 4.81069614534731
"100103" "cotrusto" "nonword" "ralpa" "SL1_2" "TF29" "1" "D" 629 "nonword" 313 1 539 "1" "unrelated" "cotr" "usto" "cotra" "HF" "nonword" 18 8 5 1.3 2.45 0 0 4.81069614534731
"100103" "cotrusto" "nonword" "ralpa" "SL1_2" "AG32" "2" "D" 1072 "nonword" 17 1 495 "1" "unrelated" "cotr" "usto" "cotra" "HF" "nonword" 18 8 5 1.3 2.45 0 0 4.81069614534731
"100103" "cotrusto" "nonword" "ralpa" "SL1_2" "DR33" "1" "S" 640 "nonword" 131 1 1078 "1" "unrelated" "cotr" "usto" "cotra" "HF" "nonword" 18 8 5 1.3 2.45 0 0 4.81069614534731
"100103" "cotrusto" "nonword" "ralpa" "SL1_2" "LS11" "1" "D" 534 "nonword" 233 1 474 "1" "unrelated" "cotr" "usto" "cotra" "HF" "nonword" 18 8 5 1.3 2.45 0 0 4.81069614534731
"100103" "cotrusto" "nonword" "ralpa" "SL1_2" "GS24" "2" "D" 644 "nonword" 19 1 554 "1" "unrelated" "cotr" "usto" "cotra" "HF" "nonword" 18 8 5 1.3 2.45 0 0 4.81069614534731
"100103" "cotrusto" "nonword" "ralpa" "SL1_2" "AM9" "1" "D" 1158 "nonword" 193 1 719 "1" "unrelated" "cotr" "usto" "cotra" "HF" "nonword" 18 8 5 1.3 2.45 0 0 4.81069614534731
"100103" "cotrusto" "nonword" "ralpa" "SL1_2" "MZ17" "1" "D" 545 "nonword" 215 1 482 "0" "unrelated" "cotr" "usto" "cotra" "HF" "nonword" 18 8 5 1.3 2.45 0 0 4.81069614534731
"100103" "cotrusto" "nonword" "ralpa" "SL1_2" "EC43" "1" "D" 601 "nonword" 324 1 621 "1" "unrelated" "cotr" "usto" "cotra" "HF" "nonword" 18 8 5 1.3 2.45 0 0 4.81069614534731
"100103" "cotrusto" "nonword" "ralpa" "SL1_2" "AG38" "2" "D" 532 "nonword" 35 1 509 "1" "unrelated" "cotr" "usto" "cotra" "HF" "nonword" 18 8 5 1.3 2.45 0 0 4.81069614534731
"100103" "cotrusto" "nonword" "ralpa" "SL1_2" "GM10" "2" "D" 622 "nonword" 246 1 607 "1" "unrelated" "cotr" "usto" "cotra" "HF" "nonword" 18 8 5 1.3 2.45 0 0 4.81069614534731
"100103" "cotrusto" "nonword" "ralpa" "SL1_2" "GZ35" "1" "D" 786 "nonword" 208 1 806 "1" "unrelated" "cotr" "usto" "cotra" "HF" "nonword" 18 8 5 1.3 2.45 0 0 4.81069614534731
"100103" "cotrusto" "nonword" "ralpa" "SL1_2" "NJ39" "1" "D" 625 "nonword" 159 1 647 "1" "unrelated" "cotr" "usto" "cotra" "HF" "nonword" 18 8 5 1.3 2.45 0 0 4.81069614534731
"100103" "cotrusto" "nonword" "ralpa" "SL1_2" "EF2" "2" "D" 655 "nonword" 256 1 766 "0" "unrelated" "cotr" "usto" "cotra" "HF" "nonword" 18 8 5 1.3 2.45 0 0 4.81069614534731
"100103" "cotrusto" "nonword" "ralpa" "SL1_2" "LD18" "2" "D" 703 "nonword" 289 1 482 "1" "unrelated" "cotr" "usto" "cotra" "HF" "nonword" 18 8 5 1.3 2.45 0 0 4.81069614534731
"100103" "cotrusto" "nonword" "ralpa" "SL1_2" "FC5" "1" "D" 596 "nonword" 39 1 567 "1" "unrelated" "cotr" "usto" "cotra" "HF" "nonword" 18 8 5 1.3 2.45 0 0 4.81069614534731
"100103" "cotrusto" "nonword" "ralpa" "SL1_2" "RZ20" "2" "D" 744 "nonword" 231 1 699 "1" "unrelated" "cotr" "usto" "cotra" "HF" "nonword" 18 8 5 1.3 2.45 0 0 4.81069614534731
"100103" "cotrusto" "nonword" "ralpa" "SL1_2" "BA22" "2" "S" 1129 "nonword" 220 1 505 "1" "unrelated" "cotr" "usto" "cotra" "HF" "nonword" 18 8 5 1.3 2.45 0 0 4.81069614534731
"100103" "cotrusto" "nonword" "ralpa" "SL1_2" "EDP28" "2" "D" 586 "nonword" 157 1 607 "1" "unrelated" "cotr" "usto" "cotra" "HF" "nonword" 18 8 5 1.3 2.45 0 0 4.81069614534731
"100103" "cotrusto" "nonword" "ralpa" "SL1_2" "ET21" "1" "D" 502 "nonword" 269 1 487 "1" "unrelated" "cotr" "usto" "cotra" "HF" "nonword" 18 8 5 1.3 2.45 0 0 4.81069614534731
"100103" "cotrusto" "nonword" "ralpa" "SL1_2" "FC19" "1" "D" 570 "nonword" 33 1 503 "1" "unrelated" "cotr" "usto" "cotra" "HF" "nonword" 18 8 5 1.3 2.45 0 0 4.81069614534731
"100103" "cotrusto" "nonword" "ralpa" "SL1_2" "SC15" "1" "D" 698 "nonword" 20 1 511 "1" "unrelated" "cotr" "usto" "cotra" "HF" "nonword" 18 8 5 1.3 2.45 0 0 4.81069614534731
"100147" "fidantatoco" "nonword" "tertimone" "SL1_2" "MR34" "2" "D" 579 "nonword" 71 1 552 "1" "unrelated" "fidantat" "oco" "fidantato" "HF" "nonword" 13 11 9 2.2 3.6 0 0 4.77659223358054
"100147" "fidantatoco" "nonword" "tertimone" "SL1_2" "FC19" "1" "D" 529 "word" 222 0 462 "1" "unrelated" "fidantat" "oco" "fidantato" "HF" "nonword" 13 11 9 2.2 3.6 0 0 4.77659223358054
"100147" "fidantatoco" "nonword" "tertimone" "SL1_2" "GS36" "2" "D" 1232 "nonword" 215 1 692 "1" "unrelated" "fidantat" "oco" "fidantato" "HF" "nonword" 13 11 9 2.2 3.6 0 0 4.77659223358054
"100147" "fidantatoco" "nonword" "tertimone" "SL1_2" "LA13" "1" "S" 635 "word" 259 0 953 "1" "unrelated" "fidantat" "oco" "fidantato" "HF" "nonword" 13 11 9 2.2 3.6 0 0 4.77659223358054
"100147" "fidantatoco" "nonword" "tertimone" "SL1_2" "NJ39" "1" "D" 683 "nonword" 184 1 686 "1" "unrelated" "fidantat" "oco" "fidantato" "HF" "nonword" 13 11 9 2.2 3.6 0 0 4.77659223358054
"100147" "fidantatoco" "nonword" "tertimone" "SL1_2" "VB30" "2" "D" 691 "nonword" 153 1 644 "1" "unrelated" "fidantat" "oco" "fidantato" "HF" "nonword" 13 11 9 2.2 3.6 0 0 4.77659223358054
"100147" "fidantatoco" "nonword" "tertimone" "SL1_2" "FT31" "1" "D" 621 "nonword" 280 1 664 "1" "unrelated" "fidantat" "oco" "fidantato" "HF" "nonword" 13 11 9 2.2 3.6 0 0 4.77659223358054
"100147" "fidantatoco" "nonword" "tertimone" "SL1_2" "GP45" "1" "D" 1455 "nonword" 246 1 653 "1" "unrelated" "fidantat" "oco" "fidantato" "HF" "nonword" 13 11 9 2.2 3.6 0 0 4.77659223358054
"100147" "fidantatoco" "nonword" "tertimone" "SL1_2" "SB4" "2" "D" 987 "nonword" 76 1 589 "1" "unrelated" "fidantat" "oco" "fidantato" "HF" "nonword" 13 11 9 2.2 3.6 0 0 4.77659223358054
"100147" "fidantatoco" "nonword" "tertimone" "SL1_2" "FB14" "2" "D" 692 "nonword" 250 1 494 "1" "unrelated" "fidantat" "oco" "fidantato" "HF" "nonword" 13 11 9 2.2 3.6 0 0 4.77659223358054
"100147" "fidantatoco" "nonword" "tertimone" "SL1_2" "GZ35" "1" "D" 927 "nonword" 167 1 542 "1" "unrelated" "fidantat" "oco" "fidantato" "HF" "nonword" 13 11 9 2.2 3.6 0 0 4.77659223358054
"100147" "fidantatoco" "nonword" "tertimone" "SL1_2" "ADC8" "2" "D" 639 "nonword" 176 1 475 "1" "unrelated" "fidantat" "oco" "fidantato" "HF" "nonword" 13 11 9 2.2 3.6 0 0 4.77659223358054
"100147" "fidantatoco" "nonword" "tertimone" "SL1_2" "EA1" "1" "D" 0 "NoResponse" 284 0 977 "1" "unrelated" "fidantat" "oco" "fidantato" "HF" "nonword" 13 11 9 2.2 3.6 0 0 4.77659223358054
"100147" "fidantatoco" "nonword" "tertimone" "SL1_2" "MB23" "1" "D" 597 "nonword" 145 1 449 "1" "unrelated" "fidantat" "oco" "fidantato" "HF" "nonword" 13 11 9 2.2 3.6 0 0 4.77659223358054
"100147" "fidantatoco" "nonword" "tertimone" "SL1_2" "ATA27" "1" "D" 585 "nonword" 287 1 538 "1" "unrelated" "fidantat" "oco" "fidantato" "HF" "nonword" 13 11 9 2.2 3.6 0 0 4.77659223358054
"100147" "fidantatoco" "nonword" "tertimone" "SL1_2" "IM16" "2" "D" 845 "nonword" 292 1 433 "1" "unrelated" "fidantat" "oco" "fidantato" "HF" "nonword" 13 11 9 2.2 3.6 0 0 4.77659223358054
"100147" "fidantatoco" "nonword" "tertimone" "SL1_2" "SS7" "1" "D" 766 "nonword" 95 1 665 "1" "unrelated" "fidantat" "oco" "fidantato" "HF" "nonword" 13 11 9 2.2 3.6 0 0 4.77659223358054
"100147" "fidantatoco" "nonword" "tertimone" "SL1_2" "AM9" "1" "D" 727 "nonword" 308 1 680 "1" "unrelated" "fidantat" "oco" "fidantato" "HF" "nonword" 13 11 9 2.2 3.6 0 0 4.77659223358054
"100147" "fidantatoco" "nonword" "tertimone" "SL1_2" "DV40" "2" "D" 976 "nonword" 167 1 680 "1" "unrelated" "fidantat" "oco" "fidantato" "HF" "nonword" 13 11 9 2.2 3.6 0 0 4.77659223358054
"100147" "fidantatoco" "nonword" "tertimone" "SL1_2" "BA22" "2" "S" 1069 "nonword" 141 1 667 "1" "unrelated" "fidantat" "oco" "fidantato" "HF" "nonword" 13 11 9 2.2 3.6 0 0 4.77659223358054
"100147" "fidantatoco" "nonword" "tertimone" "SL1_2" "FM12" "2" "D" 968 "nonword" 191 1 627 "1" "unrelated" "fidantat" "oco" "fidantato" "HF" "nonword" 13 11 9 2.2 3.6 0 0 4.77659223358054
"100147" "fidantatoco" "nonword" "tertimone" "SL1_2" "AG32" "2" "D" 0 "NoResponse" 220 0 705 "1" "unrelated" "fidantat" "oco" "fidantato" "HF" "nonword" 13 11 9 2.2 3.6 0 0 4.77659223358054
"100147" "fidantatoco" "nonword" "tertimone" "SL1_2" "AC26" "2" "D" 747 "nonword" 318 1 835 "1" "unrelated" "fidantat" "oco" "fidantato" "HF" "nonword" 13 11 9 2.2 3.6 0 0 4.77659223358054
"100147" "fidantatoco" "nonword" "tertimone" "SL1_2" "EF2" "2" "D" 662 "nonword" 224 1 457 "1" "unrelated" "fidantat" "oco" "fidantato" "HF" "nonword" 13 11 9 2.2 3.6 0 0 4.77659223358054
"100147" "fidantatoco" "nonword" "tertimone" "SL1_2" "DR33" "1" "S" 766 "nonword" 162 1 520 "1" "unrelated" "fidantat" "oco" "fidantato" "HF" "nonword" 13 11 9 2.2 3.6 0 0 4.77659223358054
"100147" "fidantatoco" "nonword" "tertimone" "SL1_2" "GI37" "1" "D" 749 "nonword" 304 1 720 "1" "unrelated" "fidantat" "oco" "fidantato" "HF" "nonword" 13 11 9 2.2 3.6 0 0 4.77659223358054
"100147" "fidantatoco" "nonword" "tertimone" "SL1_2" "AG38" "2" "D" 820 "nonword" 102 1 665 "1" "unrelated" "fidantat" "oco" "fidantato" "HF" "nonword" 13 11 9 2.2 3.6 0 0 4.77659223358054
"100147" "fidantatoco" "nonword" "tertimone" "SL1_2" "TF29" "1" "D" 644 "nonword" 121 1 437 "1" "unrelated" "fidantat" "oco" "fidantato" "HF" "nonword" 13 11 9 2.2 3.6 0 0 4.77659223358054
"100147" "fidantatoco" "nonword" "tertimone" "SL1_2" "CM41" "1" "D" 726 "nonword" 173 1 736 "1" "unrelated" "fidantat" "oco" "fidantato" "HF" "nonword" 13 11 9 2.2 3.6 0 0 4.77659223358054
"100147" "fidantatoco" "nonword" "tertimone" "SL1_2" "VP3" "1" "S" 686 "nonword" 15 1 513 "1" "unrelated" "fidantat" "oco" "fidantato" "HF" "nonword" 13 11 9 2.2 3.6 0 0 4.77659223358054
"100147" "fidantatoco" "nonword" "tertimone" "SL1_2" "EF44" "2" "D" 588 "nonword" 316 1 484 "1" "unrelated" "fidantat" "oco" "fidantato" "HF" "nonword" 13 11 9 2.2 3.6 0 0 4.77659223358054
"100147" "fidantatoco" "nonword" "tertimone" "SL1_2" "GM10" "2" "D" 811 "nonword" 333 1 613 "1" "unrelated" "fidantat" "oco" "fidantato" "HF" "nonword" 13 11 9 2.2 3.6 0 0 4.77659223358054
"100147" "fidantatoco" "nonword" "tertimone" "SL1_2" "KN25" "1" "D" 745 "nonword" 268 1 887 "1" "unrelated" "fidantat" "oco" "fidantato" "HF" "nonword" 13 11 9 2.2 3.6 0 0 4.77659223358054
"100147" "fidantatoco" "nonword" "tertimone" "SL1_2" "LS11" "1" "D" 708 "nonword" 137 1 555 "1" "unrelated" "fidantat" "oco" "fidantato" "HF" "nonword" 13 11 9 2.2 3.6 0 0 4.77659223358054
"100147" "fidantatoco" "nonword" "tertimone" "SL1_2" "FC4" "2" "D" 867 "nonword" 76 1 742 "1" "unrelated" "fidantat" "oco" "fidantato" "HF" "nonword" 13 11 9 2.2 3.6 0 0 4.77659223358054
"100147" "fidantatoco" "nonword" "tertimone" "SL1_2" "EC43" "1" "D" 493 "word" 132 0 518 "1" "unrelated" "fidantat" "oco" "fidantato" "HF" "nonword" 13 11 9 2.2 3.6 0 0 4.77659223358054
"100147" "fidantatoco" "nonword" "tertimone" "SL1_2" "RZ20" "2" "D" 950 "word" 202 0 724 "1" "unrelated" "fidantat" "oco" "fidantato" "HF" "nonword" 13 11 9 2.2 3.6 0 0 4.77659223358054
"100147" "fidantatoco" "nonword" "tertimone" "SL1_2" "SC15" "1" "D" 871 "nonword" 116 1 758 "1" "unrelated" "fidantat" "oco" "fidantato" "HF" "nonword" 13 11 9 2.2 3.6 0 0 4.77659223358054
"100147" "fidantatoco" "nonword" "tertimone" "SL1_2" "AD42" "2" "D" 647 "nonword" 67 1 441 "1" "unrelated" "fidantat" "oco" "fidantato" "HF" "nonword" 13 11 9 2.2 3.6 0 0 4.77659223358054
"100147" "fidantatoco" "nonword" "tertimone" "SL1_2" "ET21" "1" "D" 623 "nonword" 159 1 528 "1" "unrelated" "fidantat" "oco" "fidantato" "HF" "nonword" 13 11 9 2.2 3.6 0 0 4.77659223358054
"100147" "fidantatoco" "nonword" "tertimone" "SL1_2" "EDP28" "2" "D" 644 "nonword" 22 1 489 "1" "unrelated" "fidantat" "oco" "fidantato" "HF" "nonword" 13 11 9 2.2 3.6 0 0 4.77659223358054
"100147" "fidantatoco" "nonword" "tertimone" "SL1_2" "FC5" "1" "D" 887 "nonword" 322 1 586 "1" "unrelated" "fidantat" "oco" "fidantato" "HF" "nonword" 13 11 9 2.2 3.6 0 0 4.77659223358054
"100147" "fidantatoco" "nonword" "tertimone" "SL1_2" "MZ17" "1" "D" 614 "nonword" 297 1 652 "1" "unrelated" "fidantat" "oco" "fidantato" "HF" "nonword" 13 11 9 2.2 3.6 0 0 4.77659223358054
"100147" "fidantatoco" "nonword" "tertimone" "SL1_2" "GS24" "2" "D" 659 "word" 36 0 478 "1" "unrelated" "fidantat" "oco" "fidantato" "HF" "nonword" 13 11 9 2.2 3.6 0 0 4.77659223358054
"100147" "fidantatoco" "nonword" "tertimone" "SL1_2" "LD18" "2" "D" 592 "word" 275 0 593 "1" "unrelated" "fidantat" "oco" "fidantato" "HF" "nonword" 13 11 9 2.2 3.6 0 0 4.77659223358054
"100183" "furogno" "nonword" "eloe" "SL1_2" "TF29" "1" "D" 657 "nonword" 248 1 677 "1" "unrelated" "fur" "ogno" "furo" "HF" "nonword" 10 7 4 1.15 2.15 1.07918124604762 0 4.97151705645433
"100183" "furogno" "nonword" "eloe" "SL1_2" "SB4" "2" "D" 1240 "nonword" 35 1 683 "1" "unrelated" "fur" "ogno" "furo" "HF" "nonword" 10 7 4 1.15 2.15 1.07918124604762 0 4.97151705645433
"100183" "furogno" "nonword" "eloe" "SL1_2" "MB23" "1" "D" 833 "nonword" 164 1 474 "1" "unrelated" "fur" "ogno" "furo" "HF" "nonword" 10 7 4 1.15 2.15 1.07918124604762 0 4.97151705645433
"100183" "furogno" "nonword" "eloe" "SL1_2" "SS7" "1" "D" 537 "nonword" 298 1 640 "1" "unrelated" "fur" "ogno" "furo" "HF" "nonword" 10 7 4 1.15 2.15 1.07918124604762 0 4.97151705645433
"100183" "furogno" "nonword" "eloe" "SL1_2" "EF44" "2" "D" 602 "nonword" 201 1 476 "1" "unrelated" "fur" "ogno" "furo" "HF" "nonword" 10 7 4 1.15 2.15 1.07918124604762 0 4.97151705645433
"100183" "furogno" "nonword" "eloe" "SL1_2" "GS36" "2" "D" 633 "nonword" 108 1 865 "1" "unrelated" "fur" "ogno" "furo" "HF" "nonword" 10 7 4 1.15 2.15 1.07918124604762 0 4.97151705645433
"100183" "furogno" "nonword" "eloe" "SL1_2" "DV40" "2" "D" 902 "nonword" 121 1 814 "1" "unrelated" "fur" "ogno" "furo" "HF" "nonword" 10 7 4 1.15 2.15 1.07918124604762 0 4.97151705645433
"100183" "furogno" "nonword" "eloe" "SL1_2" "VB30" "2" "D" 660 "nonword" 168 1 708 "1" "unrelated" "fur" "ogno" "furo" "HF" "nonword" 10 7 4 1.15 2.15 1.07918124604762 0 4.97151705645433
"100183" "furogno" "nonword" "eloe" "SL1_2" "IM16" "2" "D" 550 "nonword" 267 1 467 "1" "unrelated" "fur" "ogno" "furo" "HF" "nonword" 10 7 4 1.15 2.15 1.07918124604762 0 4.97151705645433
"100183" "furogno" "nonword" "eloe" "SL1_2" "NJ39" "1" "D" 664 "nonword" 283 1 775 "1" "unrelated" "fur" "ogno" "furo" "HF" "nonword" 10 7 4 1.15 2.15 1.07918124604762 0 4.97151705645433
"100183" "furogno" "nonword" "eloe" "SL1_2" "FT31" "1" "D" 776 "nonword" 303 1 510 "1" "unrelated" "fur" "ogno" "furo" "HF" "nonword" 10 7 4 1.15 2.15 1.07918124604762 0 4.97151705645433
"100183" "furogno" "nonword" "eloe" "SL1_2" "AM9" "1" "D" 972 "nonword" 113 1 682 "1" "unrelated" "fur" "ogno" "furo" "HF" "nonword" 10 7 4 1.15 2.15 1.07918124604762 0 4.97151705645433
"100183" "furogno" "nonword" "eloe" "SL1_2" "ET21" "1" "D" 481 "word" 154 0 423 "1" "unrelated" "fur" "ogno" "furo" "HF" "nonword" 10 7 4 1.15 2.15 1.07918124604762 0 4.97151705645433
"100183" "furogno" "nonword" "eloe" "SL1_2" "GS24" "2" "D" 535 "nonword" 308 1 473 "1" "unrelated" "fur" "ogno" "furo" "HF" "nonword" 10 7 4 1.15 2.15 1.07918124604762 0 4.97151705645433
"100183" "furogno" "nonword" "eloe" "SL1_2" "ATA27" "1" "D" 649 "word" 53 0 518 "1" "unrelated" "fur" "ogno" "furo" "HF" "nonword" 10 7 4 1.15 2.15 1.07918124604762 0 4.97151705645433
"100183" "furogno" "nonword" "eloe" "SL1_2" "FC4" "2" "D" 533 "nonword" 35 1 599 "1" "unrelated" "fur" "ogno" "furo" "HF" "nonword" 10 7 4 1.15 2.15 1.07918124604762 0 4.97151705645433
"100183" "furogno" "nonword" "eloe" "SL1_2" "FB14" "2" "D" 608 "nonword" 17 1 575 "1" "unrelated" "fur" "ogno" "furo" "HF" "nonword" 10 7 4 1.15 2.15 1.07918124604762 0 4.97151705645433
"100183" "furogno" "nonword" "eloe" "SL1_2" "GZ35" "1" "D" 594 "nonword" 40 1 619 "1" "unrelated" "fur" "ogno" "furo" "HF" "nonword" 10 7 4 1.15 2.15 1.07918124604762 0 4.97151705645433
"100183" "furogno" "nonword" "eloe" "SL1_2" "GP45" "1" "D" 638 "nonword" 232 1 929 "1" "unrelated" "fur" "ogno" "furo" "HF" "nonword" 10 7 4 1.15 2.15 1.07918124604762 0 4.97151705645433
"100183" "furogno" "nonword" "eloe" "SL1_2" "ADC8" "2" "D" 546 "nonword" 155 1 524 "1" "unrelated" "fur" "ogno" "furo" "HF" "nonword" 10 7 4 1.15 2.15 1.07918124604762 0 4.97151705645433
"100183" "furogno" "nonword" "eloe" "SL1_2" "MR34" "2" "D" 550 "nonword" 166 1 567 "1" "unrelated" "fur" "ogno" "furo" "HF" "nonword" 10 7 4 1.15 2.15 1.07918124604762 0 4.97151705645433
"100183" "furogno" "nonword" "eloe" "SL1_2" "FC19" "1" "D" 501 "nonword" 316 1 417 "1" "unrelated" "fur" "ogno" "furo" "HF" "nonword" 10 7 4 1.15 2.15 1.07918124604762 0 4.97151705645433
"100183" "furogno" "nonword" "eloe" "SL1_2" "LA13" "1" "S" 563 "nonword" 106 1 691 "1" "unrelated" "fur" "ogno" "furo" "HF" "nonword" 10 7 4 1.15 2.15 1.07918124604762 0 4.97151705645433
"100183" "furogno" "nonword" "eloe" "SL1_2" "EF2" "2" "D" 539 "nonword" 78 1 443 "1" "unrelated" "fur" "ogno" "furo" "HF" "nonword" 10 7 4 1.15 2.15 1.07918124604762 0 4.97151705645433
"100183" "furogno" "nonword" "eloe" "SL1_2" "AG38" "2" "D" 832 "nonword" 310 1 597 "1" "unrelated" "fur" "ogno" "furo" "HF" "nonword" 10 7 4 1.15 2.15 1.07918124604762 0 4.97151705645433
"100183" "furogno" "nonword" "eloe" "SL1_2" "BA22" "2" "S" 746 "nonword" 47 1 791 "1" "unrelated" "fur" "ogno" "furo" "HF" "nonword" 10 7 4 1.15 2.15 1.07918124604762 0 4.97151705645433
"100183" "furogno" "nonword" "eloe" "SL1_2" "AG32" "2" "D" 939 "nonword" 273 1 616 "1" "unrelated" "fur" "ogno" "furo" "HF" "nonword" 10 7 4 1.15 2.15 1.07918124604762 0 4.97151705645433
"100183" "furogno" "nonword" "eloe" "SL1_2" "VP3" "1" "S" 669 "nonword" 162 1 400 "1" "unrelated" "fur" "ogno" "furo" "HF" "nonword" 10 7 4 1.15 2.15 1.07918124604762 0 4.97151705645433
"100183" "furogno" "nonword" "eloe" "SL1_2" "AD42" "2" "D" 436 "nonword" 17 1 452 "1" "unrelated" "fur" "ogno" "furo" "HF" "nonword" 10 7 4 1.15 2.15 1.07918124604762 0 4.97151705645433
"100183" "furogno" "nonword" "eloe" "SL1_2" "KN25" "1" "D" 745 "nonword" 91 1 988 "0" "unrelated" "fur" "ogno" "furo" "HF" "nonword" 10 7 4 1.15 2.15 1.07918124604762 0 4.97151705645433
"100183" "furogno" "nonword" "eloe" "SL1_2" "CM41" "1" "D" 670 "nonword" 236 1 576 "1" "unrelated" "fur" "ogno" "furo" "HF" "nonword" 10 7 4 1.15 2.15 1.07918124604762 0 4.97151705645433
"100183" "furogno" "nonword" "eloe" "SL1_2" "SC15" "1" "D" 789 "nonword" 206 1 650 "1" "unrelated" "fur" "ogno" "furo" "HF" "nonword" 10 7 4 1.15 2.15 1.07918124604762 0 4.97151705645433
"100183" "furogno" "nonword" "eloe" "SL1_2" "EA1" "1" "D" 685 "nonword" 134 1 557 "1" "unrelated" "fur" "ogno" "furo" "HF" "nonword" 10 7 4 1.15 2.15 1.07918124604762 0 4.97151705645433
"100183" "furogno" "nonword" "eloe" "SL1_2" "AC26" "2" "D" 789 "nonword" 131 1 726 "1" "unrelated" "fur" "ogno" "furo" "HF" "nonword" 10 7 4 1.15 2.15 1.07918124604762 0 4.97151705645433
"100183" "furogno" "nonword" "eloe" "SL1_2" "FM12" "2" "D" 555 "nonword" 269 1 578 "1" "unrelated" "fur" "ogno" "furo" "HF" "nonword" 10 7 4 1.15 2.15 1.07918124604762 0 4.97151705645433
"100183" "furogno" "nonword" "eloe" "SL1_2" "FC5" "1" "D" 541 "nonword" 209 1 528 "1" "unrelated" "fur" "ogno" "furo" "HF" "nonword" 10 7 4 1.15 2.15 1.07918124604762 0 4.97151705645433
"100183" "furogno" "nonword" "eloe" "SL1_2" "GI37" "1" "D" 621 "nonword" 81 1 609 "1" "unrelated" "fur" "ogno" "furo" "HF" "nonword" 10 7 4 1.15 2.15 1.07918124604762 0 4.97151705645433
"100183" "furogno" "nonword" "eloe" "SL1_2" "LS11" "1" "D" 712 "nonword" 91 1 552 "1" "unrelated" "fur" "ogno" "furo" "HF" "nonword" 10 7 4 1.15 2.15 1.07918124604762 0 4.97151705645433
"100183" "furogno" "nonword" "eloe" "SL1_2" "RZ20" "2" "D" 1100 "nonword" 29 1 1313 "1" "unrelated" "fur" "ogno" "furo" "HF" "nonword" 10 7 4 1.15 2.15 1.07918124604762 0 4.97151705645433
"100183" "furogno" "nonword" "eloe" "SL1_2" "MZ17" "1" "D" 518 "nonword" 33 1 541 "1" "unrelated" "fur" "ogno" "furo" "HF" "nonword" 10 7 4 1.15 2.15 1.07918124604762 0 4.97151705645433
"100183" "furogno" "nonword" "eloe" "SL1_2" "GM10" "2" "D" 679 "nonword" 266 1 889 "1" "unrelated" "fur" "ogno" "furo" "HF" "nonword" 10 7 4 1.15 2.15 1.07918124604762 0 4.97151705645433
"100183" "furogno" "nonword" "eloe" "SL1_2" "EC43" "1" "D" 629 "nonword" 90 1 610 "1" "unrelated" "fur" "ogno" "furo" "HF" "nonword" 10 7 4 1.15 2.15 1.07918124604762 0 4.97151705645433
"100183" "furogno" "nonword" "eloe" "SL1_2" "DR33" "1" "S" 961 "nonword" 60 1 596 "1" "unrelated" "fur" "ogno" "furo" "HF" "nonword" 10 7 4 1.15 2.15 1.07918124604762 0 4.97151705645433
"100183" "furogno" "nonword" "eloe" "SL1_2" "EDP28" "2" "D" 861 "nonword" 327 1 794 "1" "unrelated" "fur" "ogno" "furo" "HF" "nonword" 10 7 4 1.15 2.15 1.07918124604762 0 4.97151705645433
"100183" "furogno" "nonword" "eloe" "SL1_2" "LD18" "2" "D" 506 "nonword" 29 1 642 "0" "unrelated" "fur" "ogno" "furo" "HF" "nonword" 10 7 4 1.15 2.15 1.07918124604762 0 4.97151705645433
"100195" "geseranto" "nonword" "mepito" "SL1_2" "GS36" "2" "D" 896 "nonword" 17 1 864 "1" "unrelated" "geser" "anto" "gesere" "HF" "nonword" 16 9 6 1.75 2.6 0 0 5.27315411682227
"100195" "geseranto" "nonword" "mepito" "SL1_2" "VB30" "2" "D" 563 "nonword" 233 1 722 "1" "unrelated" "geser" "anto" "gesere" "HF" "nonword" 16 9 6 1.75 2.6 0 0 5.27315411682227
"100195" "geseranto" "nonword" "mepito" "SL1_2" "IM16" "2" "D" 579 "nonword" 185 1 507 "1" "unrelated" "geser" "anto" "gesere" "HF" "nonword" 16 9 6 1.75 2.6 0 0 5.27315411682227
"100195" "geseranto" "nonword" "mepito" "SL1_2" "EF2" "2" "D" 452 "nonword" 137 1 642 "1" "unrelated" "geser" "anto" "gesere" "HF" "nonword" 16 9 6 1.75 2.6 0 0 5.27315411682227
"100195" "geseranto" "nonword" "mepito" "SL1_2" "FT31" "1" "D" 576 "nonword" 50 1 855 "1" "unrelated" "geser" "anto" "gesere" "HF" "nonword" 16 9 6 1.75 2.6 0 0 5.27315411682227
"100195" "geseranto" "nonword" "mepito" "SL1_2" "SB4" "2" "D" 692 "nonword" 326 1 566 "1" "unrelated" "geser" "anto" "gesere" "HF" "nonword" 16 9 6 1.75 2.6 0 0 5.27315411682227
"100195" "geseranto" "nonword" "mepito" "SL1_2" "AG32" "2" "D" 664 "nonword" 332 1 671 "1" "unrelated" "geser" "anto" "gesere" "HF" "nonword" 16 9 6 1.75 2.6 0 0 5.27315411682227
"100195" "geseranto" "nonword" "mepito" "SL1_2" "SC15" "1" "D" 667 "nonword" 208 1 502 "1" "unrelated" "geser" "anto" "gesere" "HF" "nonword" 16 9 6 1.75 2.6 0 0 5.27315411682227
"100195" "geseranto" "nonword" "mepito" "SL1_2" "AG38" "2" "D" 1007 "nonword" 77 1 522 "1" "unrelated" "geser" "anto" "gesere" "HF" "nonword" 16 9 6 1.75 2.6 0 0 5.27315411682227
"100195" "geseranto" "nonword" "mepito" "SL1_2" "NJ39" "1" "D" 503 "nonword" 319 1 503 "1" "unrelated" "geser" "anto" "gesere" "HF" "nonword" 16 9 6 1.75 2.6 0 0 5.27315411682227
"100195" "geseranto" "nonword" "mepito" "SL1_2" "EF44" "2" "D" 549 "nonword" 26 1 522 "1" "unrelated" "geser" "anto" "gesere" "HF" "nonword" 16 9 6 1.75 2.6 0 0 5.27315411682227
"100195" "geseranto" "nonword" "mepito" "SL1_2" "DV40" "2" "D" 718 "nonword" 53 1 490 "1" "unrelated" "geser" "anto" "gesere" "HF" "nonword" 16 9 6 1.75 2.6 0 0 5.27315411682227
"100195" "geseranto" "nonword" "mepito" "SL1_2" "ATA27" "1" "D" 678 "nonword" 72 1 601 "1" "unrelated" "geser" "anto" "gesere" "HF" "nonword" 16 9 6 1.75 2.6 0 0 5.27315411682227
"100195" "geseranto" "nonword" "mepito" "SL1_2" "GI37" "1" "D" 558 "nonword" 188 1 562 "1" "unrelated" "geser" "anto" "gesere" "HF" "nonword" 16 9 6 1.75 2.6 0 0 5.27315411682227
"100195" "geseranto" "nonword" "mepito" "SL1_2" "DR33" "1" "S" 728 "nonword" 86 1 524 "1" "unrelated" "geser" "anto" "gesere" "HF" "nonword" 16 9 6 1.75 2.6 0 0 5.27315411682227
"100195" "geseranto" "nonword" "mepito" "SL1_2" "RZ20" "2" "D" 819 "nonword" 208 1 742 "1" "unrelated" "geser" "anto" "gesere" "HF" "nonword" 16 9 6 1.75 2.6 0 0 5.27315411682227
"100195" "geseranto" "nonword" "mepito" "SL1_2" "GZ35" "1" "D" 616 "nonword" 183 1 623 "1" "unrelated" "geser" "anto" "gesere" "HF" "nonword" 16 9 6 1.75 2.6 0 0 5.27315411682227
"100195" "geseranto" "nonword" "mepito" "SL1_2" "BA22" "2" "S" 582 "nonword" 277 1 617 "1" "unrelated" "geser" "anto" "gesere" "HF" "nonword" 16 9 6 1.75 2.6 0 0 5.27315411682227
"100195" "geseranto" "nonword" "mepito" "SL1_2" "TF29" "1" "D" 494 "nonword" 154 1 490 "1" "unrelated" "geser" "anto" "gesere" "HF" "nonword" 16 9 6 1.75 2.6 0 0 5.27315411682227
"100195" "geseranto" "nonword" "mepito" "SL1_2" "EA1" "1" "D" 873 "nonword" 295 1 1035 "1" "unrelated" "geser" "anto" "gesere" "HF" "nonword" 16 9 6 1.75 2.6 0 0 5.27315411682227
"100195" "geseranto" "nonword" "mepito" "SL1_2" "EC43" "1" "D" 634 "nonword" 160 1 521 "1" "unrelated" "geser" "anto" "gesere" "HF" "nonword" 16 9 6 1.75 2.6 0 0 5.27315411682227
"100195" "geseranto" "nonword" "mepito" "SL1_2" "ET21" "1" "D" 524 "nonword" 274 1 484 "1" "unrelated" "geser" "anto" "gesere" "HF" "nonword" 16 9 6 1.75 2.6 0 0 5.27315411682227
"100195" "geseranto" "nonword" "mepito" "SL1_2" "FB14" "2" "D" 540 "nonword" 34 1 602 "1" "unrelated" "geser" "anto" "gesere" "HF" "nonword" 16 9 6 1.75 2.6 0 0 5.27315411682227
"100195" "geseranto" "nonword" "mepito" "SL1_2" "SS7" "1" "D" 769 "nonword" 35 1 652 "1" "unrelated" "geser" "anto" "gesere" "HF" "nonword" 16 9 6 1.75 2.6 0 0 5.27315411682227
"100195" "geseranto" "nonword" "mepito" "SL1_2" "AM9" "1" "D" 617 "nonword" 253 1 633 "1" "unrelated" "geser" "anto" "gesere" "HF" "nonword" 16 9 6 1.75 2.6 0 0 5.27315411682227
"100195" "geseranto" "nonword" "mepito" "SL1_2" "FC19" "1" "D" 461 "nonword" 114 1 578 "1" "unrelated" "geser" "anto" "gesere" "HF" "nonword" 16 9 6 1.75 2.6 0 0 5.27315411682227
"100195" "geseranto" "nonword" "mepito" "SL1_2" "MZ17" "1" "D" 562 "nonword" 105 1 735 "1" "unrelated" "geser" "anto" "gesere" "HF" "nonword" 16 9 6 1.75 2.6 0 0 5.27315411682227
"100195" "geseranto" "nonword" "mepito" "SL1_2" "MR34" "2" "D" 543 "nonword" 241 1 503 "1" "unrelated" "geser" "anto" "gesere" "HF" "nonword" 16 9 6 1.75 2.6 0 0 5.27315411682227
"100195" "geseranto" "nonword" "mepito" "SL1_2" "FC4" "2" "D" 614 "nonword" 326 1 529 "1" "unrelated" "geser" "anto" "gesere" "HF" "nonword" 16 9 6 1.75 2.6 0 0 5.27315411682227
"100195" "geseranto" "nonword" "mepito" "SL1_2" "AD42" "2" "D" 516 "nonword" 53 1 470 "1" "unrelated" "geser" "anto" "gesere" "HF" "nonword" 16 9 6 1.75 2.6 0 0 5.27315411682227
"100195" "geseranto" "nonword" "mepito" "SL1_2" "AC26" "2" "D" 596 "nonword" 61 1 672 "1" "unrelated" "geser" "anto" "gesere" "HF" "nonword" 16 9 6 1.75 2.6 0 0 5.27315411682227
"100195" "geseranto" "nonword" "mepito" "SL1_2" "KN25" "1" "D" 557 "nonword" 227 1 384 "1" "unrelated" "geser" "anto" "gesere" "HF" "nonword" 16 9 6 1.75 2.6 0 0 5.27315411682227
"100195" "geseranto" "nonword" "mepito" "SL1_2" "LA13" "1" "S" 712 "nonword" 23 1 608 "1" "unrelated" "geser" "anto" "gesere" "HF" "nonword" 16 9 6 1.75 2.6 0 0 5.27315411682227
"100195" "geseranto" "nonword" "mepito" "SL1_2" "LD18" "2" "D" 603 "nonword" 195 1 659 "1" "unrelated" "geser" "anto" "gesere" "HF" "nonword" 16 9 6 1.75 2.6 0 0 5.27315411682227
"100195" "geseranto" "nonword" "mepito" "SL1_2" "LS11" "1" "D" 587 "nonword" 189 1 609 "1" "unrelated" "geser" "anto" "gesere" "HF" "nonword" 16 9 6 1.75 2.6 0 0 5.27315411682227
"100195" "geseranto" "nonword" "mepito" "SL1_2" "MB23" "1" "D" 460 "nonword" 284 1 486 "1" "unrelated" "geser" "anto" "gesere" "HF" "nonword" 16 9 6 1.75 2.6 0 0 5.27315411682227
"100195" "geseranto" "nonword" "mepito" "SL1_2" "EDP28" "2" "D" 535 "nonword" 266 1 684 "1" "unrelated" "geser" "anto" "gesere" "HF" "nonword" 16 9 6 1.75 2.6 0 0 5.27315411682227
"100195" "geseranto" "nonword" "mepito" "SL1_2" "CM41" "1" "D" 573 "nonword" 140 1 561 "1" "unrelated" "geser" "anto" "gesere" "HF" "nonword" 16 9 6 1.75 2.6 0 0 5.27315411682227
"100195" "geseranto" "nonword" "mepito" "SL1_2" "GS24" "2" "D" 638 "nonword" 332 1 567 "1" "unrelated" "geser" "anto" "gesere" "HF" "nonword" 16 9 6 1.75 2.6 0 0 5.27315411682227
"100195" "geseranto" "nonword" "mepito" "SL1_2" "ADC8" "2" "D" 570 "nonword" 209 1 535 "1" "unrelated" "geser" "anto" "gesere" "HF" "nonword" 16 9 6 1.75 2.6 0 0 5.27315411682227
"100195" "geseranto" "nonword" "mepito" "SL1_2" "FM12" "2" "D" 577 "nonword" 233 1 568 "1" "unrelated" "geser" "anto" "gesere" "HF" "nonword" 16 9 6 1.75 2.6 0 0 5.27315411682227
"100195" "geseranto" "nonword" "mepito" "SL1_2" "GP45" "1" "D" 562 "nonword" 296 1 597 "1" "unrelated" "geser" "anto" "gesere" "HF" "nonword" 16 9 6 1.75 2.6 0 0 5.27315411682227
"100195" "geseranto" "nonword" "mepito" "SL1_2" "GM10" "2" "D" 594 "nonword" 133 1 702 "1" "unrelated" "geser" "anto" "gesere" "HF" "nonword" 16 9 6 1.75 2.6 0 0 5.27315411682227
"100195" "geseranto" "nonword" "mepito" "SL1_2" "FC5" "1" "D" 622 "nonword" 199 1 640 "1" "unrelated" "geser" "anto" "gesere" "HF" "nonword" 16 9 6 1.75 2.6 0 0 5.27315411682227
"100195" "geseranto" "nonword" "mepito" "SL1_2" "VP3" "1" "S" 467 "nonword" 209 1 789 "1" "unrelated" "geser" "anto" "gesere" "HF" "nonword" 16 9 6 1.75 2.6 0 0 5.27315411682227
"1002" "acrintro" "nonword" "menca" "SL1_2" "AC26" "2" "D" 623 "nonword" 285 1 623 "1" "unrelated" "acri" "ntro" "acrio" "HF" "nonword" 20 8 5 1.15 2.95 0 0 5.02836788369706
"1002" "acrintro" "nonword" "menca" "SL1_2" "CM41" "1" "D" 575 "nonword" 147 1 619 "1" "unrelated" "acri" "ntro" "acrio" "HF" "nonword" 20 8 5 1.15 2.95 0 0 5.02836788369706
"1002" "acrintro" "nonword" "menca" "SL1_2" "ET21" "1" "D" 562 "nonword" 301 1 531 "1" "unrelated" "acri" "ntro" "acrio" "HF" "nonword" 20 8 5 1.15 2.95 0 0 5.02836788369706
"1002" "acrintro" "nonword" "menca" "SL1_2" "EC43" "1" "D" 792 "nonword" 248 1 529 "1" "unrelated" "acri" "ntro" "acrio" "HF" "nonword" 20 8 5 1.15 2.95 0 0 5.02836788369706
"1002" "acrintro" "nonword" "menca" "SL1_2" "MZ17" "1" "D" 565 "nonword" 175 1 499 "1" "unrelated" "acri" "ntro" "acrio" "HF" "nonword" 20 8 5 1.15 2.95 0 0 5.02836788369706
"1002" "acrintro" "nonword" "menca" "SL1_2" "BA22" "2" "S" 516 "nonword" 297 1 520 "1" "unrelated" "acri" "ntro" "acrio" "HF" "nonword" 20 8 5 1.15 2.95 0 0 5.02836788369706
"1002" "acrintro" "nonword" "menca" "SL1_2" "MB23" "1" "D" 533 "nonword" 258 1 791 "1" "unrelated" "acri" "ntro" "acrio" "HF" "nonword" 20 8 5 1.15 2.95 0 0 5.02836788369706
"1002" "acrintro" "nonword" "menca" "SL1_2" "DV40" "2" "D" 611 "nonword" 189 1 697 "1" "unrelated" "acri" "ntro" "acrio" "HF" "nonword" 20 8 5 1.15 2.95 0 0 5.02836788369706
"1002" "acrintro" "nonword" "menca" "SL1_2" "FC19" "1" "D" 489 "nonword" 143 1 440 "1" "unrelated" "acri" "ntro" "acrio" "HF" "nonword" 20 8 5 1.15 2.95 0 0 5.02836788369706
"1002" "acrintro" "nonword" "menca" "SL1_2" "LS11" "1" "D" 612 "nonword" 145 1 490 "1" "unrelated" "acri" "ntro" "acrio" "HF" "nonword" 20 8 5 1.15 2.95 0 0 5.02836788369706
"1002" "acrintro" "nonword" "menca" "SL1_2" "FM12" "2" "D" 578 "nonword" 149 1 624 "1" "unrelated" "acri" "ntro" "acrio" "HF" "nonword" 20 8 5 1.15 2.95 0 0 5.02836788369706
"1002" "acrintro" "nonword" "menca" "SL1_2" "FB14" "2" "D" 567 "nonword" 105 1 512 "1" "unrelated" "acri" "ntro" "acrio" "HF" "nonword" 20 8 5 1.15 2.95 0 0 5.02836788369706
"1002" "acrintro" "nonword" "menca" "SL1_2" "DR33" "1" "S" 681 "nonword" 260 1 546 "1" "unrelated" "acri" "ntro" "acrio" "HF" "nonword" 20 8 5 1.15 2.95 0 0 5.02836788369706
"1002" "acrintro" "nonword" "menca" "SL1_2" "EDP28" "2" "D" 549 "nonword" 159 1 601 "1" "unrelated" "acri" "ntro" "acrio" "HF" "nonword" 20 8 5 1.15 2.95 0 0 5.02836788369706
"1002" "acrintro" "nonword" "menca" "SL1_2" "AD42" "2" "D" 563 "nonword" 192 1 422 "1" "unrelated" "acri" "ntro" "acrio" "HF" "nonword" 20 8 5 1.15 2.95 0 0 5.02836788369706
"1002" "acrintro" "nonword" "menca" "SL1_2" "IM16" "2" "D" 621 "nonword" 159 1 481 "1" "unrelated" "acri" "ntro" "acrio" "HF" "nonword" 20 8 5 1.15 2.95 0 0 5.02836788369706
"1002" "acrintro" "nonword" "menca" "SL1_2" "GI37" "1" "D" 563 "nonword" 225 1 584 "1" "unrelated" "acri" "ntro" "acrio" "HF" "nonword" 20 8 5 1.15 2.95 0 0 5.02836788369706
"1002" "acrintro" "nonword" "menca" "SL1_2" "EA1" "1" "D" 637 "nonword" 227 1 629 "1" "unrelated" "acri" "ntro" "acrio" "HF" "nonword" 20 8 5 1.15 2.95 0 0 5.02836788369706
"1002" "acrintro" "nonword" "menca" "SL1_2" "LA13" "1" "S" 658 "nonword" 87 1 644 "1" "unrelated" "acri" "ntro" "acrio" "HF" "nonword" 20 8 5 1.15 2.95 0 0 5.02836788369706
"1002" "acrintro" "nonword" "menca" "SL1_2" "AG32" "2" "D" 820 "nonword" 75 1 659 "1" "unrelated" "acri" "ntro" "acrio" "HF" "nonword" 20 8 5 1.15 2.95 0 0 5.02836788369706
"1002" "acrintro" "nonword" "menca" "SL1_2" "FC4" "2" "D" 575 "nonword" 231 1 447 "1" "unrelated" "acri" "ntro" "acrio" "HF" "nonword" 20 8 5 1.15 2.95 0 0 5.02836788369706
"1002" "acrintro" "nonword" "menca" "SL1_2" "KN25" "1" "D" 570 "nonword" 16 1 515 "1" "unrelated" "acri" "ntro" "acrio" "HF" "nonword" 20 8 5 1.15 2.95 0 0 5.02836788369706
"1002" "acrintro" "nonword" "menca" "SL1_2" "ATA27" "1" "D" 512 "nonword" 108 1 774 "1" "unrelated" "acri" "ntro" "acrio" "HF" "nonword" 20 8 5 1.15 2.95 0 0 5.02836788369706
"1002" "acrintro" "nonword" "menca" "SL1_2" "ADC8" "2" "D" 579 "nonword" 292 1 461 "1" "unrelated" "acri" "ntro" "acrio" "HF" "nonword" 20 8 5 1.15 2.95 0 0 5.02836788369706
"1002" "acrintro" "nonword" "menca" "SL1_2" "GS24" "2" "D" 510 "nonword" 50 1 489 "1" "unrelated" "acri" "ntro" "acrio" "HF" "nonword" 20 8 5 1.15 2.95 0 0 5.02836788369706
"1002" "acrintro" "nonword" "menca" "SL1_2" "NJ39" "1" "D" 629 "nonword" 270 1 589 "1" "unrelated" "acri" "ntro" "acrio" "HF" "nonword" 20 8 5 1.15 2.95 0 0 5.02836788369706
"1002" "acrintro" "nonword" "menca" "SL1_2" "VP3" "1" "S" 605 "nonword" 107 1 533 "1" "unrelated" "acri" "ntro" "acrio" "HF" "nonword" 20 8 5 1.15 2.95 0 0 5.02836788369706
"1002" "acrintro" "nonword" "menca" "SL1_2" "FC5" "1" "D" 566 "nonword" 77 1 475 "1" "unrelated" "acri" "ntro" "acrio" "HF" "nonword" 20 8 5 1.15 2.95 0 0 5.02836788369706
"1002" "acrintro" "nonword" "menca" "SL1_2" "VB30" "2" "D" 580 "nonword" 289 1 500 "1" "unrelated" "acri" "ntro" "acrio" "HF" "nonword" 20 8 5 1.15 2.95 0 0 5.02836788369706
"1002" "acrintro" "nonword" "menca" "SL1_2" "AG38" "2" "D" 522 "nonword" 60 1 540 "1" "unrelated" "acri" "ntro" "acrio" "HF" "nonword" 20 8 5 1.15 2.95 0 0 5.02836788369706
"1002" "acrintro" "nonword" "menca" "SL1_2" "LD18" "2" "D" 569 "nonword" 137 1 545 "1" "unrelated" "acri" "ntro" "acrio" "HF" "nonword" 20 8 5 1.15 2.95 0 0 5.02836788369706
"1002" "acrintro" "nonword" "menca" "SL1_2" "RZ20" "2" "D" 951 "nonword" 43 1 666 "1" "unrelated" "acri" "ntro" "acrio" "HF" "nonword" 20 8 5 1.15 2.95 0 0 5.02836788369706
"1002" "acrintro" "nonword" "menca" "SL1_2" "GS36" "2" "D" 906 "nonword" 55 1 661 "1" "unrelated" "acri" "ntro" "acrio" "HF" "nonword" 20 8 5 1.15 2.95 0 0 5.02836788369706
"1002" "acrintro" "nonword" "menca" "SL1_2" "EF44" "2" "D" 504 "nonword" 183 1 508 "1" "unrelated" "acri" "ntro" "acrio" "HF" "nonword" 20 8 5 1.15 2.95 0 0 5.02836788369706
"1002" "acrintro" "nonword" "menca" "SL1_2" "SB4" "2" "D" 924 "nonword" 231 1 609 "1" "unrelated" "acri" "ntro" "acrio" "HF" "nonword" 20 8 5 1.15 2.95 0 0 5.02836788369706
"1002" "acrintro" "nonword" "menca" "SL1_2" "GP45" "1" "D" 1409 "nonword" 217 1 770 "1" "unrelated" "acri" "ntro" "acrio" "HF" "nonword" 20 8 5 1.15 2.95 0 0 5.02836788369706
"1002" "acrintro" "nonword" "menca" "SL1_2" "EF2" "2" "D" 470 "nonword" 274 1 429 "1" "unrelated" "acri" "ntro" "acrio" "HF" "nonword" 20 8 5 1.15 2.95 0 0 5.02836788369706
"1002" "acrintro" "nonword" "menca" "SL1_2" "SS7" "1" "D" 516 "nonword" 84 1 588 "1" "unrelated" "acri" "ntro" "acrio" "HF" "nonword" 20 8 5 1.15 2.95 0 0 5.02836788369706
"1002" "acrintro" "nonword" "menca" "SL1_2" "FT31" "1" "D" 841 "nonword" 70 1 607 "1" "unrelated" "acri" "ntro" "acrio" "HF" "nonword" 20 8 5 1.15 2.95 0 0 5.02836788369706
"1002" "acrintro" "nonword" "menca" "SL1_2" "GM10" "2" "D" 606 "nonword" 203 1 555 "1" "unrelated" "acri" "ntro" "acrio" "HF" "nonword" 20 8 5 1.15 2.95 0 0 5.02836788369706
"1002" "acrintro" "nonword" "menca" "SL1_2" "AM9" "1" "D" 638 "nonword" 210 1 524 "1" "unrelated" "acri" "ntro" "acrio" "HF" "nonword" 20 8 5 1.15 2.95 0 0 5.02836788369706
"1002" "acrintro" "nonword" "menca" "SL1_2" "GZ35" "1" "D" 873 "nonword" 258 1 674 "1" "unrelated" "acri" "ntro" "acrio" "HF" "nonword" 20 8 5 1.15 2.95 0 0 5.02836788369706
"1002" "acrintro" "nonword" "menca" "SL1_2" "SC15" "1" "D" 598 "nonword" 177 1 993 "1" "unrelated" "acri" "ntro" "acrio" "HF" "nonword" 20 8 5 1.15 2.95 0 0 5.02836788369706
"1002" "acrintro" "nonword" "menca" "SL1_2" "MR34" "2" "D" 511 "nonword" 107 1 493 "1" "unrelated" "acri" "ntro" "acrio" "HF" "nonword" 20 8 5 1.15 2.95 0 0 5.02836788369706
"1002" "acrintro" "nonword" "menca" "SL1_2" "TF29" "1" "D" 529 "nonword" 16 1 418 "1" "unrelated" "acri" "ntro" "acrio" "HF" "nonword" 20 8 5 1.15 2.95 0 0 5.02836788369706
"100205" "grazallo" "nonword" "baude" "SL1_2" "FC19" "1" "D" 457 "nonword" 206 1 468 "1" "unrelated" "graz" "allo" "grazo" "HF" "nonword" 14 8 5 1.6 2.7 0 0 4.68754679635075
"100205" "grazallo" "nonword" "baude" "SL1_2" "MB23" "1" "D" 415 "nonword" 102 1 406 "1" "unrelated" "graz" "allo" "grazo" "HF" "nonword" 14 8 5 1.6 2.7 0 0 4.68754679635075
"100205" "grazallo" "nonword" "baude" "SL1_2" "GS36" "2" "D" 581 "nonword" 45 1 666 "1" "unrelated" "graz" "allo" "grazo" "HF" "nonword" 14 8 5 1.6 2.7 0 0 4.68754679635075
"100205" "grazallo" "nonword" "baude" "SL1_2" "ADC8" "2" "D" 544 "nonword" 248 1 524 "1" "unrelated" "graz" "allo" "grazo" "HF" "nonword" 14 8 5 1.6 2.7 0 0 4.68754679635075
"100205" "grazallo" "nonword" "baude" "SL1_2" "FT31" "1" "D" 771 "nonword" 172 1 491 "1" "unrelated" "graz" "allo" "grazo" "HF" "nonword" 14 8 5 1.6 2.7 0 0 4.68754679635075
"100205" "grazallo" "nonword" "baude" "SL1_2" "ATA27" "1" "D" 557 "nonword" 31 1 599 "1" "unrelated" "graz" "allo" "grazo" "HF" "nonword" 14 8 5 1.6 2.7 0 0 4.68754679635075
"100205" "grazallo" "nonword" "baude" "SL1_2" "AG32" "2" "D" 651 "nonword" 259 1 742 "1" "unrelated" "graz" "allo" "grazo" "HF" "nonword" 14 8 5 1.6 2.7 0 0 4.68754679635075
"100205" "grazallo" "nonword" "baude" "SL1_2" "EA1" "1" "D" 719 "nonword" 181 1 658 "1" "unrelated" "graz" "allo" "grazo" "HF" "nonword" 14 8 5 1.6 2.7 0 0 4.68754679635075
"100205" "grazallo" "nonword" "baude" "SL1_2" "FB14" "2" "D" 639 "nonword" 303 1 522 "1" "unrelated" "graz" "allo" "grazo" "HF" "nonword" 14 8 5 1.6 2.7 0 0 4.68754679635075
"100205" "grazallo" "nonword" "baude" "SL1_2" "AG38" "2" "D" 850 "nonword" 93 1 755 "1" "unrelated" "graz" "allo" "grazo" "HF" "nonword" 14 8 5 1.6 2.7 0 0 4.68754679635075
"100205" "grazallo" "nonword" "baude" "SL1_2" "GI37" "1" "D" 652 "nonword" 129 1 515 "1" "unrelated" "graz" "allo" "grazo" "HF" "nonword" 14 8 5 1.6 2.7 0 0 4.68754679635075
"100205" "grazallo" "nonword" "baude" "SL1_2" "LD18" "2" "D" 536 "nonword" 213 1 524 "1" "unrelated" "graz" "allo" "grazo" "HF" "nonword" 14 8 5 1.6 2.7 0 0 4.68754679635075
"100205" "grazallo" "nonword" "baude" "SL1_2" "GM10" "2" "D" 707 "nonword" 282 1 655 "1" "unrelated" "graz" "allo" "grazo" "HF" "nonword" 14 8 5 1.6 2.7 0 0 4.68754679635075
"100205" "grazallo" "nonword" "baude" "SL1_2" "IM16" "2" "D" 587 "nonword" 34 1 487 "1" "unrelated" "graz" "allo" "grazo" "HF" "nonword" 14 8 5 1.6 2.7 0 0 4.68754679635075
"100205" "grazallo" "nonword" "baude" "SL1_2" "SB4" "2" "D" 654 "nonword" 187 1 640 "1" "unrelated" "graz" "allo" "grazo" "HF" "nonword" 14 8 5 1.6 2.7 0 0 4.68754679635075
"100205" "grazallo" "nonword" "baude" "SL1_2" "DR33" "1" "S" 507 "nonword" 291 1 536 "1" "unrelated" "graz" "allo" "grazo" "HF" "nonword" 14 8 5 1.6 2.7 0 0 4.68754679635075
"100205" "grazallo" "nonword" "baude" "SL1_2" "SC15" "1" "D" 811 "nonword" 67 1 649 "1" "unrelated" "graz" "allo" "grazo" "HF" "nonword" 14 8 5 1.6 2.7 0 0 4.68754679635075
"100205" "grazallo" "nonword" "baude" "SL1_2" "DV40" "2" "D" 641 "nonword" 234 1 871 "1" "unrelated" "graz" "allo" "grazo" "HF" "nonword" 14 8 5 1.6 2.7 0 0 4.68754679635075
"100205" "grazallo" "nonword" "baude" "SL1_2" "EF44" "2" "D" 479 "nonword" 169 1 506 "1" "unrelated" "graz" "allo" "grazo" "HF" "nonword" 14 8 5 1.6 2.7 0 0 4.68754679635075
"100205" "grazallo" "nonword" "baude" "SL1_2" "BA22" "2" "S" 515 "nonword" 306 1 634 "1" "unrelated" "graz" "allo" "grazo" "HF" "nonword" 14 8 5 1.6 2.7 0 0 4.68754679635075
"100205" "grazallo" "nonword" "baude" "SL1_2" "RZ20" "2" "D" 705 "nonword" 298 1 1228 "1" "unrelated" "graz" "allo" "grazo" "HF" "nonword" 14 8 5 1.6 2.7 0 0 4.68754679635075
"100205" "grazallo" "nonword" "baude" "SL1_2" "EC43" "1" "D" 771 "nonword" 40 1 621 "1" "unrelated" "graz" "allo" "grazo" "HF" "nonword" 14 8 5 1.6 2.7 0 0 4.68754679635075
"100205" "grazallo" "nonword" "baude" "SL1_2" "AC26" "2" "D" 831 "nonword" 153 1 825 "1" "unrelated" "graz" "allo" "grazo" "HF" "nonword" 14 8 5 1.6 2.7 0 0 4.68754679635075
"100205" "grazallo" "nonword" "baude" "SL1_2" "GZ35" "1" "D" 726 "nonword" 148 1 532 "1" "unrelated" "graz" "allo" "grazo" "HF" "nonword" 14 8 5 1.6 2.7 0 0 4.68754679635075
"100205" "grazallo" "nonword" "baude" "SL1_2" "ET21" "1" "D" 475 "nonword" 131 1 535 "1" "unrelated" "graz" "allo" "grazo" "HF" "nonword" 14 8 5 1.6 2.7 0 0 4.68754679635075
"100205" "grazallo" "nonword" "baude" "SL1_2" "AD42" "2" "D" 644 "nonword" 154 1 666 "1" "unrelated" "graz" "allo" "grazo" "HF" "nonword" 14 8 5 1.6 2.7 0 0 4.68754679635075
"100205" "grazallo" "nonword" "baude" "SL1_2" "LA13" "1" "S" 549 "nonword" 171 1 567 "1" "unrelated" "graz" "allo" "grazo" "HF" "nonword" 14 8 5 1.6 2.7 0 0 4.68754679635075
"100205" "grazallo" "nonword" "baude" "SL1_2" "EF2" "2" "D" 526 "nonword" 203 1 421 "1" "unrelated" "graz" "allo" "grazo" "HF" "nonword" 14 8 5 1.6 2.7 0 0 4.68754679635075
"100205" "grazallo" "nonword" "baude" "SL1_2" "KN25" "1" "D" 487 "nonword" 154 1 666 "1" "unrelated" "graz" "allo" "grazo" "HF" "nonword" 14 8 5 1.6 2.7 0 0 4.68754679635075
"100205" "grazallo" "nonword" "baude" "SL1_2" "VB30" "2" "D" 555 "nonword" 29 1 842 "1" "unrelated" "graz" "allo" "grazo" "HF" "nonword" 14 8 5 1.6 2.7 0 0 4.68754679635075
"100205" "grazallo" "nonword" "baude" "SL1_2" "GS24" "2" "D" 611 "nonword" 208 1 548 "1" "unrelated" "graz" "allo" "grazo" "HF" "nonword" 14 8 5 1.6 2.7 0 0 4.68754679635075
"100205" "grazallo" "nonword" "baude" "SL1_2" "SS7" "1" "D" 549 "nonword" 188 1 503 "1" "unrelated" "graz" "allo" "grazo" "HF" "nonword" 14 8 5 1.6 2.7 0 0 4.68754679635075
"100205" "grazallo" "nonword" "baude" "SL1_2" "MR34" "2" "D" 471 "nonword" 200 1 498 "1" "unrelated" "graz" "allo" "grazo" "HF" "nonword" 14 8 5 1.6 2.7 0 0 4.68754679635075
"100205" "grazallo" "nonword" "baude" "SL1_2" "GP45" "1" "D" 639 "nonword" 174 1 822 "1" "unrelated" "graz" "allo" "grazo" "HF" "nonword" 14 8 5 1.6 2.7 0 0 4.68754679635075
"100205" "grazallo" "nonword" "baude" "SL1_2" "MZ17" "1" "D" 586 "nonword" 124 1 661 "1" "unrelated" "graz" "allo" "grazo" "HF" "nonword" 14 8 5 1.6 2.7 0 0 4.68754679635075
"100205" "grazallo" "nonword" "baude" "SL1_2" "FC4" "2" "D" 693 "nonword" 187 1 557 "1" "unrelated" "graz" "allo" "grazo" "HF" "nonword" 14 8 5 1.6 2.7 0 0 4.68754679635075
"100205" "grazallo" "nonword" "baude" "SL1_2" "FM12" "2" "D" 509 "nonword" 31 1 553 "1" "unrelated" "graz" "allo" "grazo" "HF" "nonword" 14 8 5 1.6 2.7 0 0 4.68754679635075
"100205" "grazallo" "nonword" "baude" "SL1_2" "EDP28" "2" "D" 683 "nonword" 93 1 607 "1" "unrelated" "graz" "allo" "grazo" "HF" "nonword" 14 8 5 1.6 2.7 0 0 4.68754679635075
"100205" "grazallo" "nonword" "baude" "SL1_2" "AM9" "1" "D" 637 "nonword" 265 1 665 "1" "unrelated" "graz" "allo" "grazo" "HF" "nonword" 14 8 5 1.6 2.7 0 0 4.68754679635075
"100205" "grazallo" "nonword" "baude" "SL1_2" "LS11" "1" "D" 496 "nonword" 266 1 470 "1" "unrelated" "graz" "allo" "grazo" "HF" "nonword" 14 8 5 1.6 2.7 0 0 4.68754679635075
"100205" "grazallo" "nonword" "baude" "SL1_2" "TF29" "1" "D" 550 "nonword" 164 1 553 "1" "unrelated" "graz" "allo" "grazo" "HF" "nonword" 14 8 5 1.6 2.7 0 0 4.68754679635075
"100205" "grazallo" "nonword" "baude" "SL1_2" "CM41" "1" "D" 523 "nonword" 245 1 534 "1" "unrelated" "graz" "allo" "grazo" "HF" "nonword" 14 8 5 1.6 2.7 0 0 4.68754679635075
"100205" "grazallo" "nonword" "baude" "SL1_2" "VP3" "1" "S" 556 "nonword" 288 1 635 "1" "unrelated" "graz" "allo" "grazo" "HF" "nonword" 14 8 5 1.6 2.7 0 0 4.68754679635075
"100205" "grazallo" "nonword" "baude" "SL1_2" "NJ39" "1" "D" 739 "nonword" 56 1 687 "1" "unrelated" "graz" "allo" "grazo" "HF" "nonword" 14 8 5 1.6 2.7 0 0 4.68754679635075
"100205" "grazallo" "nonword" "baude" "SL1_2" "FC5" "1" "D" 584 "nonword" 101 1 502 "1" "unrelated" "graz" "allo" "grazo" "HF" "nonword" 14 8 5 1.6 2.7 0 0 4.68754679635075
"100233" "legrerso" "nonword" "piema" "SL1_2" "MB23" "1" "D" 402 "nonword" 128 1 407 "1" "unrelated" "legr" "erso" "legra" "HF" "nonword" 9 8 5 1.4 2.65 0 0 4.83239393718418
"100233" "legrerso" "nonword" "piema" "SL1_2" "FB14" "2" "D" 571 "nonword" 116 1 489 "1" "unrelated" "legr" "erso" "legra" "HF" "nonword" 9 8 5 1.4 2.65 0 0 4.83239393718418
"100233" "legrerso" "nonword" "piema" "SL1_2" "VB30" "2" "D" 615 "nonword" 35 1 572 "1" "unrelated" "legr" "erso" "legra" "HF" "nonword" 9 8 5 1.4 2.65 0 0 4.83239393718418
"100233" "legrerso" "nonword" "piema" "SL1_2" "GI37" "1" "D" 567 "nonword" 285 1 530 "1" "unrelated" "legr" "erso" "legra" "HF" "nonword" 9 8 5 1.4 2.65 0 0 4.83239393718418
"100233" "legrerso" "nonword" "piema" "SL1_2" "GS36" "2" "D" 692 "nonword" 139 1 680 "1" "unrelated" "legr" "erso" "legra" "HF" "nonword" 9 8 5 1.4 2.65 0 0 4.83239393718418
"100233" "legrerso" "nonword" "piema" "SL1_2" "TF29" "1" "D" 664 "nonword" 104 1 679 "1" "unrelated" "legr" "erso" "legra" "HF" "nonword" 9 8 5 1.4 2.65 0 0 4.83239393718418
"100233" "legrerso" "nonword" "piema" "SL1_2" "FT31" "1" "D" 665 "nonword" 30 1 429 "1" "unrelated" "legr" "erso" "legra" "HF" "nonword" 9 8 5 1.4 2.65 0 0 4.83239393718418
"100233" "legrerso" "nonword" "piema" "SL1_2" "AG38" "2" "D" 600 "nonword" 213 1 522 "1" "unrelated" "legr" "erso" "legra" "HF" "nonword" 9 8 5 1.4 2.65 0 0 4.83239393718418
"100233" "legrerso" "nonword" "piema" "SL1_2" "DR33" "1" "S" 502 "nonword" 318 1 439 "1" "unrelated" "legr" "erso" "legra" "HF" "nonword" 9 8 5 1.4 2.65 0 0 4.83239393718418
"100233" "legrerso" "nonword" "piema" "SL1_2" "SB4" "2" "D" 1478 "nonword" 163 1 557 "1" "unrelated" "legr" "erso" "legra" "HF" "nonword" 9 8 5 1.4 2.65 0 0 4.83239393718418
"100233" "legrerso" "nonword" "piema" "SL1_2" "EF44" "2" "D" 506 "nonword" 216 1 587 "1" "unrelated" "legr" "erso" "legra" "HF" "nonword" 9 8 5 1.4 2.65 0 0 4.83239393718418
"100233" "legrerso" "nonword" "piema" "SL1_2" "ATA27" "1" "D" 695 "nonword" 163 1 481 "1" "unrelated" "legr" "erso" "legra" "HF" "nonword" 9 8 5 1.4 2.65 0 0 4.83239393718418
"100233" "legrerso" "nonword" "piema" "SL1_2" "EA1" "1" "D" 759 "nonword" 77 1 875 "1" "unrelated" "legr" "erso" "legra" "HF" "nonword" 9 8 5 1.4 2.65 0 0 4.83239393718418
"100233" "legrerso" "nonword" "piema" "SL1_2" "LD18" "2" "D" 520 "nonword" 180 1 456 "1" "unrelated" "legr" "erso" "legra" "HF" "nonword" 9 8 5 1.4 2.65 0 0 4.83239393718418
"100233" "legrerso" "nonword" "piema" "SL1_2" "DV40" "2" "D" 681 "nonword" 91 1 709 "1" "unrelated" "legr" "erso" "legra" "HF" "nonword" 9 8 5 1.4 2.65 0 0 4.83239393718418
"100233" "legrerso" "nonword" "piema" "SL1_2" "ET21" "1" "D" 505 "nonword" 122 1 429 "1" "unrelated" "legr" "erso" "legra" "HF" "nonword" 9 8 5 1.4 2.65 0 0 4.83239393718418
"100233" "legrerso" "nonword" "piema" "SL1_2" "FC5" "1" "D" 636 "nonword" 279 1 641 "1" "unrelated" "legr" "erso" "legra" "HF" "nonword" 9 8 5 1.4 2.65 0 0 4.83239393718418
"100233" "legrerso" "nonword" "piema" "SL1_2" "KN25" "1" "D" 600 "nonword" 185 1 630 "1" "unrelated" "legr" "erso" "legra" "HF" "nonword" 9 8 5 1.4 2.65 0 0 4.83239393718418
"100233" "legrerso" "nonword" "piema" "SL1_2" "VP3" "1" "S" 583 "nonword" 326 1 512 "1" "unrelated" "legr" "erso" "legra" "HF" "nonword" 9 8 5 1.4 2.65 0 0 4.83239393718418
"100233" "legrerso" "nonword" "piema" "SL1_2" "EF2" "2" "D" 547 "nonword" 82 1 464 "1" "unrelated" "legr" "erso" "legra" "HF" "nonword" 9 8 5 1.4 2.65 0 0 4.83239393718418
"100233" "legrerso" "nonword" "piema" "SL1_2" "GZ35" "1" "D" 694 "nonword" 240 1 711 "1" "unrelated" "legr" "erso" "legra" "HF" "nonword" 9 8 5 1.4 2.65 0 0 4.83239393718418
"100233" "legrerso" "nonword" "piema" "SL1_2" "LS11" "1" "D" 599 "nonword" 306 1 548 "1" "unrelated" "legr" "erso" "legra" "HF" "nonword" 9 8 5 1.4 2.65 0 0 4.83239393718418
"100233" "legrerso" "nonword" "piema" "SL1_2" "MZ17" "1" "D" 688 "nonword" 314 1 652 "1" "unrelated" "legr" "erso" "legra" "HF" "nonword" 9 8 5 1.4 2.65 0 0 4.83239393718418
"100233" "legrerso" "nonword" "piema" "SL1_2" "AC26" "2" "D" 713 "nonword" 334 1 519 "1" "unrelated" "legr" "erso" "legra" "HF" "nonword" 9 8 5 1.4 2.65 0 0 4.83239393718418
"100233" "legrerso" "nonword" "piema" "SL1_2" "MR34" "2" "D" 524 "nonword" 310 1 499 "1" "unrelated" "legr" "erso" "legra" "HF" "nonword" 9 8 5 1.4 2.65 0 0 4.83239393718418
"100233" "legrerso" "nonword" "piema" "SL1_2" "CM41" "1" "D" 606 "nonword" 291 1 586 "1" "unrelated" "legr" "erso" "legra" "HF" "nonword" 9 8 5 1.4 2.65 0 0 4.83239393718418
"100233" "legrerso" "nonword" "piema" "SL1_2" "SC15" "1" "D" 704 "nonword" 160 1 621 "1" "unrelated" "legr" "erso" "legra" "HF" "nonword" 9 8 5 1.4 2.65 0 0 4.83239393718418
"100233" "legrerso" "nonword" "piema" "SL1_2" "ADC8" "2" "D" 566 "nonword" 162 1 520 "1" "unrelated" "legr" "erso" "legra" "HF" "nonword" 9 8 5 1.4 2.65 0 0 4.83239393718418
"100233" "legrerso" "nonword" "piema" "SL1_2" "AG32" "2" "D" 681 "nonword" 317 1 532 "1" "unrelated" "legr" "erso" "legra" "HF" "nonword" 9 8 5 1.4 2.65 0 0 4.83239393718418
"100233" "legrerso" "nonword" "piema" "SL1_2" "BA22" "2" "S" 848 "nonword" 97 1 700 "1" "unrelated" "legr" "erso" "legra" "HF" "nonword" 9 8 5 1.4 2.65 0 0 4.83239393718418
"100233" "legrerso" "nonword" "piema" "SL1_2" "RZ20" "2" "D" 901 "nonword" 140 1 668 "1" "unrelated" "legr" "erso" "legra" "HF" "nonword" 9 8 5 1.4 2.65 0 0 4.83239393718418
"100233" "legrerso" "nonword" "piema" "SL1_2" "EC43" "1" "D" 527 "nonword" 298 1 548 "1" "unrelated" "legr" "erso" "legra" "HF" "nonword" 9 8 5 1.4 2.65 0 0 4.83239393718418
"100233" "legrerso" "nonword" "piema" "SL1_2" "LA13" "1" "S" 616 "nonword" 249 1 572 "1" "unrelated" "legr" "erso" "legra" "HF" "nonword" 9 8 5 1.4 2.65 0 0 4.83239393718418
"100233" "legrerso" "nonword" "piema" "SL1_2" "GS24" "2" "D" 575 "nonword" 239 1 510 "1" "unrelated" "legr" "erso" "legra" "HF" "nonword" 9 8 5 1.4 2.65 0 0 4.83239393718418
"100233" "legrerso" "nonword" "piema" "SL1_2" "EDP28" "2" "D" 571 "nonword" 71 1 456 "1" "unrelated" "legr" "erso" "legra" "HF" "nonword" 9 8 5 1.4 2.65 0 0 4.83239393718418
"100233" "legrerso" "nonword" "piema" "SL1_2" "FM12" "2" "D" 547 "nonword" 295 1 756 "1" "unrelated" "legr" "erso" "legra" "HF" "nonword" 9 8 5 1.4 2.65 0 0 4.83239393718418
"100233" "legrerso" "nonword" "piema" "SL1_2" "FC19" "1" "D" 592 "nonword" 89 1 402 "1" "unrelated" "legr" "erso" "legra" "HF" "nonword" 9 8 5 1.4 2.65 0 0 4.83239393718418
"100233" "legrerso" "nonword" "piema" "SL1_2" "IM16" "2" "D" 635 "nonword" 239 1 567 "1" "unrelated" "legr" "erso" "legra" "HF" "nonword" 9 8 5 1.4 2.65 0 0 4.83239393718418
"100233" "legrerso" "nonword" "piema" "SL1_2" "GP45" "1" "D" 699 "nonword" 85 1 584 "1" "unrelated" "legr" "erso" "legra" "HF" "nonword" 9 8 5 1.4 2.65 0 0 4.83239393718418
"100233" "legrerso" "nonword" "piema" "SL1_2" "AM9" "1" "D" 852 "nonword" 159 1 481 "1" "unrelated" "legr" "erso" "legra" "HF" "nonword" 9 8 5 1.4 2.65 0 0 4.83239393718418
"100233" "legrerso" "nonword" "piema" "SL1_2" "AD42" "2" "D" 529 "nonword" 280 1 415 "1" "unrelated" "legr" "erso" "legra" "HF" "nonword" 9 8 5 1.4 2.65 0 0 4.83239393718418
"100233" "legrerso" "nonword" "piema" "SL1_2" "FC4" "2" "D" 576 "nonword" 163 1 546 "1" "unrelated" "legr" "erso" "legra" "HF" "nonword" 9 8 5 1.4 2.65 0 0 4.83239393718418
"100233" "legrerso" "nonword" "piema" "SL1_2" "SS7" "1" "D" 608 "nonword" 55 1 538 "1" "unrelated" "legr" "erso" "legra" "HF" "nonword" 9 8 5 1.4 2.65 0 0 4.83239393718418
"100233" "legrerso" "nonword" "piema" "SL1_2" "NJ39" "1" "D" 934 "nonword" 83 1 909 "1" "unrelated" "legr" "erso" "legra" "HF" "nonword" 9 8 5 1.4 2.65 0 0 4.83239393718418
"100233" "legrerso" "nonword" "piema" "SL1_2" "GM10" "2" "D" 723 "nonword" 228 1 1016 "1" "unrelated" "legr" "erso" "legra" "HF" "nonword" 9 8 5 1.4 2.65 0 0 4.83239393718418
"100250" "pasdosso" "nonword" "margo" "SL1_2" "MB23" "1" "D" 442 "nonword" 50 1 514 "1" "unrelated" "pasd" "osso" "pasda" "HF" "nonword" 15 8 5 1 2.65 0 0 5.26423207474528
"100250" "pasdosso" "nonword" "margo" "SL1_2" "DV40" "2" "D" 0 "NoResponse" 155 0 1243 "1" "unrelated" "pasd" "osso" "pasda" "HF" "nonword" 15 8 5 1 2.65 0 0 5.26423207474528
"100250" "pasdosso" "nonword" "margo" "SL1_2" "ADC8" "2" "D" 534 "nonword" 235 1 512 "1" "unrelated" "pasd" "osso" "pasda" "HF" "nonword" 15 8 5 1 2.65 0 0 5.26423207474528
"100250" "pasdosso" "nonword" "margo" "SL1_2" "FC19" "1" "D" 513 "nonword" 169 1 469 "1" "unrelated" "pasd" "osso" "pasda" "HF" "nonword" 15 8 5 1 2.65 0 0 5.26423207474528
"100250" "pasdosso" "nonword" "margo" "SL1_2" "MR34" "2" "D" 520 "nonword" 33 1 586 "1" "unrelated" "pasd" "osso" "pasda" "HF" "nonword" 15 8 5 1 2.65 0 0 5.26423207474528
"100250" "pasdosso" "nonword" "margo" "SL1_2" "SB4" "2" "D" 927 "nonword" 218 1 621 "1" "unrelated" "pasd" "osso" "pasda" "HF" "nonword" 15 8 5 1 2.65 0 0 5.26423207474528
"100250" "pasdosso" "nonword" "margo" "SL1_2" "GS36" "2" "D" 889 "nonword" 148 1 756 "1" "unrelated" "pasd" "osso" "pasda" "HF" "nonword" 15 8 5 1 2.65 0 0 5.26423207474528
"100250" "pasdosso" "nonword" "margo" "SL1_2" "EF44" "2" "D" 638 "nonword" 56 1 649 "1" "unrelated" "pasd" "osso" "pasda" "HF" "nonword" 15 8 5 1 2.65 0 0 5.26423207474528
"100250" "pasdosso" "nonword" "margo" "SL1_2" "IM16" "2" "D" 741 "nonword" 59 1 538 "1" "unrelated" "pasd" "osso" "pasda" "HF" "nonword" 15 8 5 1 2.65 0 0 5.26423207474528
"100250" "pasdosso" "nonword" "margo" "SL1_2" "GZ35" "1" "D" 632 "nonword" 312 1 869 "1" "unrelated" "pasd" "osso" "pasda" "HF" "nonword" 15 8 5 1 2.65 0 0 5.26423207474528
"100250" "pasdosso" "nonword" "margo" "SL1_2" "TF29" "1" "D" 578 "nonword" 76 1 540 "1" "unrelated" "pasd" "osso" "pasda" "HF" "nonword" 15 8 5 1 2.65 0 0 5.26423207474528
"100250" "pasdosso" "nonword" "margo" "SL1_2" "KN25" "1" "D" 570 "word" 45 0 466 "1" "unrelated" "pasd" "osso" "pasda" "HF" "nonword" 15 8 5 1 2.65 0 0 5.26423207474528
"100250" "pasdosso" "nonword" "margo" "SL1_2" "FT31" "1" "D" 654 "nonword" 218 1 633 "1" "unrelated" "pasd" "osso" "pasda" "HF" "nonword" 15 8 5 1 2.65 0 0 5.26423207474528
"100250" "pasdosso" "nonword" "margo" "SL1_2" "EA1" "1" "D" 832 "nonword" 167 1 657 "1" "unrelated" "pasd" "osso" "pasda" "HF" "nonword" 15 8 5 1 2.65 0 0 5.26423207474528
"100250" "pasdosso" "nonword" "margo" "SL1_2" "AG32" "2" "D" 972 "nonword" 83 1 613 "1" "unrelated" "pasd" "osso" "pasda" "HF" "nonword" 15 8 5 1 2.65 0 0 5.26423207474528
"100250" "pasdosso" "nonword" "margo" "SL1_2" "ET21" "1" "D" 472 "nonword" 47 1 461 "1" "unrelated" "pasd" "osso" "pasda" "HF" "nonword" 15 8 5 1 2.65 0 0 5.26423207474528
"100250" "pasdosso" "nonword" "margo" "SL1_2" "VP3" "1" "S" 584 "nonword" 267 1 540 "1" "unrelated" "pasd" "osso" "pasda" "HF" "nonword" 15 8 5 1 2.65 0 0 5.26423207474528
"100250" "pasdosso" "nonword" "margo" "SL1_2" "AG38" "2" "D" 598 "nonword" 300 1 545 "1" "unrelated" "pasd" "osso" "pasda" "HF" "nonword" 15 8 5 1 2.65 0 0 5.26423207474528
"100250" "pasdosso" "nonword" "margo" "SL1_2" "GS24" "2" "D" 683 "nonword" 97 1 536 "1" "unrelated" "pasd" "osso" "pasda" "HF" "nonword" 15 8 5 1 2.65 0 0 5.26423207474528
"100250" "pasdosso" "nonword" "margo" "SL1_2" "SC15" "1" "D" 649 "nonword" 100 1 551 "1" "unrelated" "pasd" "osso" "pasda" "HF" "nonword" 15 8 5 1 2.65 0 0 5.26423207474528
"100250" "pasdosso" "nonword" "margo" "SL1_2" "FB14" "2" "D" 537 "nonword" 330 1 536 "1" "unrelated" "pasd" "osso" "pasda" "HF" "nonword" 15 8 5 1 2.65 0 0 5.26423207474528
"100250" "pasdosso" "nonword" "margo" "SL1_2" "DR33" "1" "S" 642 "nonword" 157 1 467 "1" "unrelated" "pasd" "osso" "pasda" "HF" "nonword" 15 8 5 1 2.65 0 0 5.26423207474528
"100250" "pasdosso" "nonword" "margo" "SL1_2" "GM10" "2" "D" 594 "nonword" 71 1 673 "1" "unrelated" "pasd" "osso" "pasda" "HF" "nonword" 15 8 5 1 2.65 0 0 5.26423207474528
"100250" "pasdosso" "nonword" "margo" "SL1_2" "EF2" "2" "D" 551 "nonword" 53 1 685 "1" "unrelated" "pasd" "osso" "pasda" "HF" "nonword" 15 8 5 1 2.65 0 0 5.26423207474528
"100250" "pasdosso" "nonword" "margo" "SL1_2" "FC4" "2" "D" 841 "nonword" 218 1 803 "1" "unrelated" "pasd" "osso" "pasda" "HF" "nonword" 15 8 5 1 2.65 0 0 5.26423207474528
"100250" "pasdosso" "nonword" "margo" "SL1_2" "ATA27" "1" "D" 624 "nonword" 194 1 719 "0" "unrelated" "pasd" "osso" "pasda" "HF" "nonword" 15 8 5 1 2.65 0 0 5.26423207474528
"100250" "pasdosso" "nonword" "margo" "SL1_2" "LD18" "2" "D" 648 "nonword" 103 1 571 "1" "unrelated" "pasd" "osso" "pasda" "HF" "nonword" 15 8 5 1 2.65 0 0 5.26423207474528
"100250" "pasdosso" "nonword" "margo" "SL1_2" "MZ17" "1" "D" 503 "nonword" 267 1 472 "1" "unrelated" "pasd" "osso" "pasda" "HF" "nonword" 15 8 5 1 2.65 0 0 5.26423207474528
"100250" "pasdosso" "nonword" "margo" "SL1_2" "LA13" "1" "S" 668 "nonword" 129 1 630 "1" "unrelated" "pasd" "osso" "pasda" "HF" "nonword" 15 8 5 1 2.65 0 0 5.26423207474528
"100250" "pasdosso" "nonword" "margo" "SL1_2" "GI37" "1" "D" 924 "nonword" 167 1 580 "1" "unrelated" "pasd" "osso" "pasda" "HF" "nonword" 15 8 5 1 2.65 0 0 5.26423207474528
"100250" "pasdosso" "nonword" "margo" "SL1_2" "SS7" "1" "D" 570 "nonword" 69 1 458 "1" "unrelated" "pasd" "osso" "pasda" "HF" "nonword" 15 8 5 1 2.65 0 0 5.26423207474528
"100250" "pasdosso" "nonword" "margo" "SL1_2" "FM12" "2" "D" 551 "nonword" 305 1 543 "1" "unrelated" "pasd" "osso" "pasda" "HF" "nonword" 15 8 5 1 2.65 0 0 5.26423207474528
"100250" "pasdosso" "nonword" "margo" "SL1_2" "RZ20" "2" "D" 898 "nonword" 245 1 659 "1" "unrelated" "pasd" "osso" "pasda" "HF" "nonword" 15 8 5 1 2.65 0 0 5.26423207474528
"100250" "pasdosso" "nonword" "margo" "SL1_2" "AD42" "2" "D" 582 "nonword" 159 1 464 "1" "unrelated" "pasd" "osso" "pasda" "HF" "nonword" 15 8 5 1 2.65 0 0 5.26423207474528
"100250" "pasdosso" "nonword" "margo" "SL1_2" "VB30" "2" "D" 590 "nonword" 58 1 668 "1" "unrelated" "pasd" "osso" "pasda" "HF" "nonword" 15 8 5 1 2.65 0 0 5.26423207474528
"100250" "pasdosso" "nonword" "margo" "SL1_2" "FC5" "1" "D" 654 "nonword" 309 1 529 "1" "unrelated" "pasd" "osso" "pasda" "HF" "nonword" 15 8 5 1 2.65 0 0 5.26423207474528
"100250" "pasdosso" "nonword" "margo" "SL1_2" "NJ39" "1" "D" 871 "nonword" 251 1 652 "1" "unrelated" "pasd" "osso" "pasda" "HF" "nonword" 15 8 5 1 2.65 0 0 5.26423207474528
"100250" "pasdosso" "nonword" "margo" "SL1_2" "EC43" "1" "D" 501 "nonword" 117 1 427 "1" "unrelated" "pasd" "osso" "pasda" "HF" "nonword" 15 8 5 1 2.65 0 0 5.26423207474528
"100250" "pasdosso" "nonword" "margo" "SL1_2" "CM41" "1" "D" 518 "nonword" 106 1 499 "1" "unrelated" "pasd" "osso" "pasda" "HF" "nonword" 15 8 5 1 2.65 0 0 5.26423207474528
"100250" "pasdosso" "nonword" "margo" "SL1_2" "AM9" "1" "D" 597 "nonword" 302 1 821 "1" "unrelated" "pasd" "osso" "pasda" "HF" "nonword" 15 8 5 1 2.65 0 0 5.26423207474528
"100250" "pasdosso" "nonword" "margo" "SL1_2" "GP45" "1" "D" 714 "nonword" 199 1 618 "1" "unrelated" "pasd" "osso" "pasda" "HF" "nonword" 15 8 5 1 2.65 0 0 5.26423207474528
"100250" "pasdosso" "nonword" "margo" "SL1_2" "LS11" "1" "D" 678 "nonword" 67 1 837 "1" "unrelated" "pasd" "osso" "pasda" "HF" "nonword" 15 8 5 1 2.65 0 0 5.26423207474528
"100250" "pasdosso" "nonword" "margo" "SL1_2" "BA22" "2" "S" 646 "nonword" 227 1 556 "1" "unrelated" "pasd" "osso" "pasda" "HF" "nonword" 15 8 5 1 2.65 0 0 5.26423207474528
"100250" "pasdosso" "nonword" "margo" "SL1_2" "EDP28" "2" "D" 603 "nonword" 133 1 594 "1" "unrelated" "pasd" "osso" "pasda" "HF" "nonword" 15 8 5 1 2.65 0 0 5.26423207474528
"100250" "pasdosso" "nonword" "margo" "SL1_2" "AC26" "2" "D" 655 "nonword" 230 1 578 "1" "unrelated" "pasd" "osso" "pasda" "HF" "nonword" 15 8 5 1 2.65 0 0 5.26423207474528
"100256" "micondo" "nonword" "pafo" "SL1_2" "DV40" "2" "D" 676 "nonword" 43 1 1234 "1" "unrelated" "mic" "ondo" "mico" "HF" "nonword" 2 7 4 1 1.9 0.954242509439325 0 4.99599038116259
"100256" "micondo" "nonword" "pafo" "SL1_2" "TF29" "1" "D" 454 "nonword" 49 1 420 "1" "unrelated" "mic" "ondo" "mico" "HF" "nonword" 2 7 4 1 1.9 0.954242509439325 0 4.99599038116259
"100256" "micondo" "nonword" "pafo" "SL1_2" "ADC8" "2" "D" 610 "nonword" 330 1 534 "1" "unrelated" "mic" "ondo" "mico" "HF" "nonword" 2 7 4 1 1.9 0.954242509439325 0 4.99599038116259
"100256" "micondo" "nonword" "pafo" "SL1_2" "SB4" "2" "D" 597 "nonword" 274 1 623 "1" "unrelated" "mic" "ondo" "mico" "HF" "nonword" 2 7 4 1 1.9 0.954242509439325 0 4.99599038116259
"100256" "micondo" "nonword" "pafo" "SL1_2" "SC15" "1" "D" 561 "nonword" 291 1 588 "1" "unrelated" "mic" "ondo" "mico" "HF" "nonword" 2 7 4 1 1.9 0.954242509439325 0 4.99599038116259
"100256" "micondo" "nonword" "pafo" "SL1_2" "EF44" "2" "D" 554 "nonword" 234 1 558 "1" "unrelated" "mic" "ondo" "mico" "HF" "nonword" 2 7 4 1 1.9 0.954242509439325 0 4.99599038116259
"100256" "micondo" "nonword" "pafo" "SL1_2" "AG32" "2" "D" 661 "nonword" 189 1 520 "1" "unrelated" "mic" "ondo" "mico" "HF" "nonword" 2 7 4 1 1.9 0.954242509439325 0 4.99599038116259
"100256" "micondo" "nonword" "pafo" "SL1_2" "GS24" "2" "D" 521 "nonword" 63 1 717 "1" "unrelated" "mic" "ondo" "mico" "HF" "nonword" 2 7 4 1 1.9 0.954242509439325 0 4.99599038116259
"100256" "micondo" "nonword" "pafo" "SL1_2" "GS36" "2" "D" 758 "nonword" 162 1 643 "1" "unrelated" "mic" "ondo" "mico" "HF" "nonword" 2 7 4 1 1.9 0.954242509439325 0 4.99599038116259
"100256" "micondo" "nonword" "pafo" "SL1_2" "CM41" "1" "D" 512 "nonword" 44 1 522 "1" "unrelated" "mic" "ondo" "mico" "HF" "nonword" 2 7 4 1 1.9 0.954242509439325 0 4.99599038116259
"100256" "micondo" "nonword" "pafo" "SL1_2" "FT31" "1" "D" 653 "nonword" 290 1 622 "1" "unrelated" "mic" "ondo" "mico" "HF" "nonword" 2 7 4 1 1.9 0.954242509439325 0 4.99599038116259
"100256" "micondo" "nonword" "pafo" "SL1_2" "GI37" "1" "D" 627 "nonword" 49 1 515 "1" "unrelated" "mic" "ondo" "mico" "HF" "nonword" 2 7 4 1 1.9 0.954242509439325 0 4.99599038116259
"100256" "micondo" "nonword" "pafo" "SL1_2" "BA22" "2" "S" 538 "nonword" 187 1 878 "1" "unrelated" "mic" "ondo" "mico" "HF" "nonword" 2 7 4 1 1.9 0.954242509439325 0 4.99599038116259
"100256" "micondo" "nonword" "pafo" "SL1_2" "LD18" "2" "D" 559 "nonword" 171 1 667 "1" "unrelated" "mic" "ondo" "mico" "HF" "nonword" 2 7 4 1 1.9 0.954242509439325 0 4.99599038116259
"100256" "micondo" "nonword" "pafo" "SL1_2" "RZ20" "2" "D" 760 "nonword" 256 1 691 "1" "unrelated" "mic" "ondo" "mico" "HF" "nonword" 2 7 4 1 1.9 0.954242509439325 0 4.99599038116259
"100256" "micondo" "nonword" "pafo" "SL1_2" "EF2" "2" "D" 621 "nonword" 321 1 760 "1" "unrelated" "mic" "ondo" "mico" "HF" "nonword" 2 7 4 1 1.9 0.954242509439325 0 4.99599038116259
"100256" "micondo" "nonword" "pafo" "SL1_2" "MZ17" "1" "D" 470 "nonword" 240 1 401 "1" "unrelated" "mic" "ondo" "mico" "HF" "nonword" 2 7 4 1 1.9 0.954242509439325 0 4.99599038116259
"100256" "micondo" "nonword" "pafo" "SL1_2" "LA13" "1" "S" 539 "nonword" 184 1 677 "1" "unrelated" "mic" "ondo" "mico" "HF" "nonword" 2 7 4 1 1.9 0.954242509439325 0 4.99599038116259
"100256" "micondo" "nonword" "pafo" "SL1_2" "MB23" "1" "D" 554 "nonword" 294 1 594 "1" "unrelated" "mic" "ondo" "mico" "HF" "nonword" 2 7 4 1 1.9 0.954242509439325 0 4.99599038116259
"100256" "micondo" "nonword" "pafo" "SL1_2" "FC19" "1" "D" 498 "nonword" 21 1 673 "1" "unrelated" "mic" "ondo" "mico" "HF" "nonword" 2 7 4 1 1.9 0.954242509439325 0 4.99599038116259
"100256" "micondo" "nonword" "pafo" "SL1_2" "ATA27" "1" "D" 484 "nonword" 329 1 510 "1" "unrelated" "mic" "ondo" "mico" "HF" "nonword" 2 7 4 1 1.9 0.954242509439325 0 4.99599038116259
"100256" "micondo" "nonword" "pafo" "SL1_2" "VB30" "2" "D" 674 "nonword" 177 1 858 "1" "unrelated" "mic" "ondo" "mico" "HF" "nonword" 2 7 4 1 1.9 0.954242509439325 0 4.99599038116259
"100256" "micondo" "nonword" "pafo" "SL1_2" "DR33" "1" "S" 488 "nonword" 210 1 533 "1" "unrelated" "mic" "ondo" "mico" "HF" "nonword" 2 7 4 1 1.9 0.954242509439325 0 4.99599038116259
"100256" "micondo" "nonword" "pafo" "SL1_2" "AD42" "2" "D" 495 "nonword" 121 1 563 "1" "unrelated" "mic" "ondo" "mico" "HF" "nonword" 2 7 4 1 1.9 0.954242509439325 0 4.99599038116259
"100256" "micondo" "nonword" "pafo" "SL1_2" "AG38" "2" "D" 605 "nonword" 117 1 465 "1" "unrelated" "mic" "ondo" "mico" "HF" "nonword" 2 7 4 1 1.9 0.954242509439325 0 4.99599038116259
"100256" "micondo" "nonword" "pafo" "SL1_2" "AM9" "1" "D" 580 "nonword" 233 1 532 "1" "unrelated" "mic" "ondo" "mico" "HF" "nonword" 2 7 4 1 1.9 0.954242509439325 0 4.99599038116259
"100256" "micondo" "nonword" "pafo" "SL1_2" "EDP28" "2" "D" 588 "nonword" 52 1 532 "1" "unrelated" "mic" "ondo" "mico" "HF" "nonword" 2 7 4 1 1.9 0.954242509439325 0 4.99599038116259
"100256" "micondo" "nonword" "pafo" "SL1_2" "EA1" "1" "D" 650 "nonword" 252 1 587 "1" "unrelated" "mic" "ondo" "mico" "HF" "nonword" 2 7 4 1 1.9 0.954242509439325 0 4.99599038116259
"100256" "micondo" "nonword" "pafo" "SL1_2" "KN25" "1" "D" 490 "nonword" 108 1 651 "1" "unrelated" "mic" "ondo" "mico" "HF" "nonword" 2 7 4 1 1.9 0.954242509439325 0 4.99599038116259
"100256" "micondo" "nonword" "pafo" "SL1_2" "GP45" "1" "D" 536 "nonword" 64 1 464 "1" "unrelated" "mic" "ondo" "mico" "HF" "nonword" 2 7 4 1 1.9 0.954242509439325 0 4.99599038116259
"100256" "micondo" "nonword" "pafo" "SL1_2" "GM10" "2" "D" 663 "nonword" 32 1 0 "0" "unrelated" "mic" "ondo" "mico" "HF" "nonword" 2 7 4 1 1.9 0.954242509439325 0 4.99599038116259
"100256" "micondo" "nonword" "pafo" "SL1_2" "SS7" "1" "D" 542 "nonword" 230 1 529 "1" "unrelated" "mic" "ondo" "mico" "HF" "nonword" 2 7 4 1 1.9 0.954242509439325 0 4.99599038116259
"100256" "micondo" "nonword" "pafo" "SL1_2" "MR34" "2" "D" 547 "nonword" 80 1 524 "1" "unrelated" "mic" "ondo" "mico" "HF" "nonword" 2 7 4 1 1.9 0.954242509439325 0 4.99599038116259
"100256" "micondo" "nonword" "pafo" "SL1_2" "FC4" "2" "D" 569 "nonword" 274 1 666 "1" "unrelated" "mic" "ondo" "mico" "HF" "nonword" 2 7 4 1 1.9 0.954242509439325 0 4.99599038116259
"100256" "micondo" "nonword" "pafo" "SL1_2" "FB14" "2" "D" 776 "nonword" 70 1 731 "1" "unrelated" "mic" "ondo" "mico" "HF" "nonword" 2 7 4 1 1.9 0.954242509439325 0 4.99599038116259
"100256" "micondo" "nonword" "pafo" "SL1_2" "EC43" "1" "D" 666 "nonword" 229 1 707 "1" "unrelated" "mic" "ondo" "mico" "HF" "nonword" 2 7 4 1 1.9 0.954242509439325 0 4.99599038116259
"100256" "micondo" "nonword" "pafo" "SL1_2" "LS11" "1" "D" 500 "nonword" 36 1 508 "1" "unrelated" "mic" "ondo" "mico" "HF" "nonword" 2 7 4 1 1.9 0.954242509439325 0 4.99599038116259
"100256" "micondo" "nonword" "pafo" "SL1_2" "FM12" "2" "D" 642 "nonword" 93 1 577 "1" "unrelated" "mic" "ondo" "mico" "HF" "nonword" 2 7 4 1 1.9 0.954242509439325 0 4.99599038116259
"100256" "micondo" "nonword" "pafo" "SL1_2" "ET21" "1" "D" 517 "nonword" 21 1 600 "1" "unrelated" "mic" "ondo" "mico" "HF" "nonword" 2 7 4 1 1.9 0.954242509439325 0 4.99599038116259
"100256" "micondo" "nonword" "pafo" "SL1_2" "FC5" "1" "D" 571 "nonword" 228 1 915 "1" "unrelated" "mic" "ondo" "mico" "HF" "nonword" 2 7 4 1 1.9 0.954242509439325 0 4.99599038116259
"100256" "micondo" "nonword" "pafo" "SL1_2" "AC26" "2" "D" 486 "nonword" 96 1 551 "1" "unrelated" "mic" "ondo" "mico" "HF" "nonword" 2 7 4 1 1.9 0.954242509439325 0 4.99599038116259
"100256" "micondo" "nonword" "pafo" "SL1_2" "GZ35" "1" "D" 567 "nonword" 102 1 586 "1" "unrelated" "mic" "ondo" "mico" "HF" "nonword" 2 7 4 1 1.9 0.954242509439325 0 4.99599038116259
"100256" "micondo" "nonword" "pafo" "SL1_2" "IM16" "2" "D" 674 "nonword" 143 1 963 "1" "unrelated" "mic" "ondo" "mico" "HF" "nonword" 2 7 4 1 1.9 0.954242509439325 0 4.99599038116259
"100256" "micondo" "nonword" "pafo" "SL1_2" "NJ39" "1" "D" 528 "nonword" 297 1 622 "1" "unrelated" "mic" "ondo" "mico" "HF" "nonword" 2 7 4 1 1.9 0.954242509439325 0 4.99599038116259
"100256" "micondo" "nonword" "pafo" "SL1_2" "VP3" "1" "S" 477 "nonword" 176 1 461 "1" "unrelated" "mic" "ondo" "mico" "HF" "nonword" 2 7 4 1 1.9 0.954242509439325 0 4.99599038116259
"10026" "astintro" "nonword" "pilza" "SL1_2" "SC15" "1" "D" 653 "nonword" 275 1 841 "1" "unrelated" "asti" "ntro" "astua" "HF" "nonword" 5 8 5 1.55 2.75 0 0 5.02836788369706
"10026" "astintro" "nonword" "pilza" "SL1_2" "LS11" "1" "D" 784 "nonword" 296 1 630 "1" "unrelated" "asti" "ntro" "astua" "HF" "nonword" 5 8 5 1.55 2.75 0 0 5.02836788369706
"10026" "astintro" "nonword" "pilza" "SL1_2" "LD18" "2" "D" 575 "nonword" 303 1 506 "1" "unrelated" "asti" "ntro" "astua" "HF" "nonword" 5 8 5 1.55 2.75 0 0 5.02836788369706
"10026" "astintro" "nonword" "pilza" "SL1_2" "MZ17" "1" "D" 501 "nonword" 59 1 436 "1" "unrelated" "asti" "ntro" "astua" "HF" "nonword" 5 8 5 1.55 2.75 0 0 5.02836788369706
"10026" "astintro" "nonword" "pilza" "SL1_2" "GM10" "2" "D" 889 "nonword" 119 1 638 "1" "unrelated" "asti" "ntro" "astua" "HF" "nonword" 5 8 5 1.55 2.75 0 0 5.02836788369706
"10026" "astintro" "nonword" "pilza" "SL1_2" "EF44" "2" "D" 555 "nonword" 94 1 428 "1" "unrelated" "asti" "ntro" "astua" "HF" "nonword" 5 8 5 1.55 2.75 0 0 5.02836788369706
"10026" "astintro" "nonword" "pilza" "SL1_2" "AC26" "2" "D" 563 "nonword" 253 1 778 "1" "unrelated" "asti" "ntro" "astua" "HF" "nonword" 5 8 5 1.55 2.75 0 0 5.02836788369706
"10026" "astintro" "nonword" "pilza" "SL1_2" "AD42" "2" "D" 481 "nonword" 242 1 581 "1" "unrelated" "asti" "ntro" "astua" "HF" "nonword" 5 8 5 1.55 2.75 0 0 5.02836788369706
"10026" "astintro" "nonword" "pilza" "SL1_2" "IM16" "2" "D" 639 "nonword" 140 1 534 "1" "unrelated" "asti" "ntro" "astua" "HF" "nonword" 5 8 5 1.55 2.75 0 0 5.02836788369706
"10026" "astintro" "nonword" "pilza" "SL1_2" "TF29" "1" "D" 559 "nonword" 41 1 607 "1" "unrelated" "asti" "ntro" "astua" "HF" "nonword" 5 8 5 1.55 2.75 0 0 5.02836788369706
"10026" "astintro" "nonword" "pilza" "SL1_2" "FC4" "2" "D" 639 "nonword" 198 1 959 "1" "unrelated" "asti" "ntro" "astua" "HF" "nonword" 5 8 5 1.55 2.75 0 0 5.02836788369706
"10026" "astintro" "nonword" "pilza" "SL1_2" "VP3" "1" "S" 923 "nonword" 130 1 580 "1" "unrelated" "asti" "ntro" "astua" "HF" "nonword" 5 8 5 1.55 2.75 0 0 5.02836788369706
"10026" "astintro" "nonword" "pilza" "SL1_2" "EC43" "1" "D" 559 "nonword" 54 1 427 "1" "unrelated" "asti" "ntro" "astua" "HF" "nonword" 5 8 5 1.55 2.75 0 0 5.02836788369706
"10026" "astintro" "nonword" "pilza" "SL1_2" "GZ35" "1" "D" 727 "nonword" 321 1 475 "1" "unrelated" "asti" "ntro" "astua" "HF" "nonword" 5 8 5 1.55 2.75 0 0 5.02836788369706
"10026" "astintro" "nonword" "pilza" "SL1_2" "FT31" "1" "D" 870 "nonword" 185 1 703 "1" "unrelated" "asti" "ntro" "astua" "HF" "nonword" 5 8 5 1.55 2.75 0 0 5.02836788369706
"10026" "astintro" "nonword" "pilza" "SL1_2" "CM41" "1" "D" 708 "nonword" 212 1 688 "1" "unrelated" "asti" "ntro" "astua" "HF" "nonword" 5 8 5 1.55 2.75 0 0 5.02836788369706
"10026" "astintro" "nonword" "pilza" "SL1_2" "FC5" "1" "D" 573 "nonword" 22 1 495 "1" "unrelated" "asti" "ntro" "astua" "HF" "nonword" 5 8 5 1.55 2.75 0 0 5.02836788369706
"10026" "astintro" "nonword" "pilza" "SL1_2" "EF2" "2" "D" 462 "nonword" 124 1 473 "1" "unrelated" "asti" "ntro" "astua" "HF" "nonword" 5 8 5 1.55 2.75 0 0 5.02836788369706
"10026" "astintro" "nonword" "pilza" "SL1_2" "FB14" "2" "D" 866 "nonword" 94 1 475 "1" "unrelated" "asti" "ntro" "astua" "HF" "nonword" 5 8 5 1.55 2.75 0 0 5.02836788369706
"10026" "astintro" "nonword" "pilza" "SL1_2" "FM12" "2" "D" 483 "nonword" 27 1 624 "1" "unrelated" "asti" "ntro" "astua" "HF" "nonword" 5 8 5 1.55 2.75 0 0 5.02836788369706
"10026" "astintro" "nonword" "pilza" "SL1_2" "ADC8" "2" "D" 551 "nonword" 313 1 554 "1" "unrelated" "asti" "ntro" "astua" "HF" "nonword" 5 8 5 1.55 2.75 0 0 5.02836788369706
"10026" "astintro" "nonword" "pilza" "SL1_2" "AM9" "1" "D" 703 "nonword" 89 1 579 "1" "unrelated" "asti" "ntro" "astua" "HF" "nonword" 5 8 5 1.55 2.75 0 0 5.02836788369706
"10026" "astintro" "nonword" "pilza" "SL1_2" "MR34" "2" "D" 546 "nonword" 320 1 459 "0" "unrelated" "asti" "ntro" "astua" "HF" "nonword" 5 8 5 1.55 2.75 0 0 5.02836788369706
"10026" "astintro" "nonword" "pilza" "SL1_2" "GS36" "2" "D" 796 "nonword" 229 1 922 "1" "unrelated" "asti" "ntro" "astua" "HF" "nonword" 5 8 5 1.55 2.75 0 0 5.02836788369706
"10026" "astintro" "nonword" "pilza" "SL1_2" "ET21" "1" "D" 653 "nonword" 211 1 432 "0" "unrelated" "asti" "ntro" "astua" "HF" "nonword" 5 8 5 1.55 2.75 0 0 5.02836788369706
"10026" "astintro" "nonword" "pilza" "SL1_2" "EA1" "1" "D" 899 "nonword" 86 1 730 "1" "unrelated" "asti" "ntro" "astua" "HF" "nonword" 5 8 5 1.55 2.75 0 0 5.02836788369706
"10026" "astintro" "nonword" "pilza" "SL1_2" "AG38" "2" "D" 667 "nonword" 23 1 588 "0" "unrelated" "asti" "ntro" "astua" "HF" "nonword" 5 8 5 1.55 2.75 0 0 5.02836788369706
"10026" "astintro" "nonword" "pilza" "SL1_2" "GS24" "2" "D" 581 "nonword" 176 1 604 "1" "unrelated" "asti" "ntro" "astua" "HF" "nonword" 5 8 5 1.55 2.75 0 0 5.02836788369706
"10026" "astintro" "nonword" "pilza" "SL1_2" "MB23" "1" "D" 594 "nonword" 68 1 885 "1" "unrelated" "asti" "ntro" "astua" "HF" "nonword" 5 8 5 1.55 2.75 0 0 5.02836788369706
"10026" "astintro" "nonword" "pilza" "SL1_2" "SS7" "1" "D" 588 "nonword" 282 1 428 "1" "unrelated" "asti" "ntro" "astua" "HF" "nonword" 5 8 5 1.55 2.75 0 0 5.02836788369706
"10026" "astintro" "nonword" "pilza" "SL1_2" "VB30" "2" "D" 539 "nonword" 132 1 577 "1" "unrelated" "asti" "ntro" "astua" "HF" "nonword" 5 8 5 1.55 2.75 0 0 5.02836788369706
"10026" "astintro" "nonword" "pilza" "SL1_2" "GP45" "1" "D" 636 "nonword" 59 1 729 "1" "unrelated" "asti" "ntro" "astua" "HF" "nonword" 5 8 5 1.55 2.75 0 0 5.02836788369706
"10026" "astintro" "nonword" "pilza" "SL1_2" "SB4" "2" "D" 897 "nonword" 198 1 1211 "1" "unrelated" "asti" "ntro" "astua" "HF" "nonword" 5 8 5 1.55 2.75 0 0 5.02836788369706
"10026" "astintro" "nonword" "pilza" "SL1_2" "BA22" "2" "S" 958 "nonword" 26 1 722 "1" "unrelated" "asti" "ntro" "astua" "HF" "nonword" 5 8 5 1.55 2.75 0 0 5.02836788369706
"10026" "astintro" "nonword" "pilza" "SL1_2" "KN25" "1" "D" 593 "nonword" 54 1 485 "1" "unrelated" "asti" "ntro" "astua" "HF" "nonword" 5 8 5 1.55 2.75 0 0 5.02836788369706
"10026" "astintro" "nonword" "pilza" "SL1_2" "FC19" "1" "D" 517 "nonword" 271 1 496 "1" "unrelated" "asti" "ntro" "astua" "HF" "nonword" 5 8 5 1.55 2.75 0 0 5.02836788369706
"10026" "astintro" "nonword" "pilza" "SL1_2" "GI37" "1" "D" 605 "nonword" 210 1 743 "1" "unrelated" "asti" "ntro" "astua" "HF" "nonword" 5 8 5 1.55 2.75 0 0 5.02836788369706
"10026" "astintro" "nonword" "pilza" "SL1_2" "EDP28" "2" "D" 576 "nonword" 190 1 595 "1" "unrelated" "asti" "ntro" "astua" "HF" "nonword" 5 8 5 1.55 2.75 0 0 5.02836788369706
"10026" "astintro" "nonword" "pilza" "SL1_2" "AG32" "2" "D" 543 "nonword" 43 1 558 "1" "unrelated" "asti" "ntro" "astua" "HF" "nonword" 5 8 5 1.55 2.75 0 0 5.02836788369706
"10026" "astintro" "nonword" "pilza" "SL1_2" "DR33" "1" "S" 759 "nonword" 29 1 628 "1" "unrelated" "asti" "ntro" "astua" "HF" "nonword" 5 8 5 1.55 2.75 0 0 5.02836788369706
"10026" "astintro" "nonword" "pilza" "SL1_2" "NJ39" "1" "D" 579 "nonword" 137 1 1144 "1" "unrelated" "asti" "ntro" "astua" "HF" "nonword" 5 8 5 1.55 2.75 0 0 5.02836788369706
"10026" "astintro" "nonword" "pilza" "SL1_2" "RZ20" "2" "D" 791 "nonword" 311 1 873 "1" "unrelated" "asti" "ntro" "astua" "HF" "nonword" 5 8 5 1.55 2.75 0 0 5.02836788369706
"10026" "astintro" "nonword" "pilza" "SL1_2" "DV40" "2" "D" 660 "nonword" 66 1 618 "1" "unrelated" "asti" "ntro" "astua" "HF" "nonword" 5 8 5 1.55 2.75 0 0 5.02836788369706
"10026" "astintro" "nonword" "pilza" "SL1_2" "ATA27" "1" "D" 630 "nonword" 265 1 643 "1" "unrelated" "asti" "ntro" "astua" "HF" "nonword" 5 8 5 1.55 2.75 0 0 5.02836788369706
"10026" "astintro" "nonword" "pilza" "SL1_2" "LA13" "1" "S" 644 "nonword" 280 1 783 "1" "unrelated" "asti" "ntro" "astua" "HF" "nonword" 5 8 5 1.55 2.75 0 0 5.02836788369706
"100293" "padmesto" "nonword" "cigro" "SL1_2" "MB23" "1" "D" 626 "nonword" 236 1 498 "1" "unrelated" "padm" "esto" "padmo" "HF" "nonword" 8 8 5 1.5 2.85 0 0 5.68823467341858
"100293" "padmesto" "nonword" "cigro" "SL1_2" "GM10" "2" "D" 618 "nonword" 86 1 606 "1" "unrelated" "padm" "esto" "padmo" "HF" "nonword" 8 8 5 1.5 2.85 0 0 5.68823467341858
"100293" "padmesto" "nonword" "cigro" "SL1_2" "ADC8" "2" "D" 605 "nonword" 118 1 643 "1" "unrelated" "padm" "esto" "padmo" "HF" "nonword" 8 8 5 1.5 2.85 0 0 5.68823467341858
"100293" "padmesto" "nonword" "cigro" "SL1_2" "BA22" "2" "S" 583 "nonword" 327 1 491 "1" "unrelated" "padm" "esto" "padmo" "HF" "nonword" 8 8 5 1.5 2.85 0 0 5.68823467341858
"100293" "padmesto" "nonword" "cigro" "SL1_2" "EF44" "2" "D" 654 "nonword" 133 1 541 "1" "unrelated" "padm" "esto" "padmo" "HF" "nonword" 8 8 5 1.5 2.85 0 0 5.68823467341858
"100293" "padmesto" "nonword" "cigro" "SL1_2" "DV40" "2" "D" 600 "nonword" 280 1 513 "1" "unrelated" "padm" "esto" "padmo" "HF" "nonword" 8 8 5 1.5 2.85 0 0 5.68823467341858
"100293" "padmesto" "nonword" "cigro" "SL1_2" "FC4" "2" "D" 661 "nonword" 293 1 883 "1" "unrelated" "padm" "esto" "padmo" "HF" "nonword" 8 8 5 1.5 2.85 0 0 5.68823467341858
"100293" "padmesto" "nonword" "cigro" "SL1_2" "GS24" "2" "D" 644 "nonword" 164 1 464 "1" "unrelated" "padm" "esto" "padmo" "HF" "nonword" 8 8 5 1.5 2.85 0 0 5.68823467341858
"100293" "padmesto" "nonword" "cigro" "SL1_2" "ET21" "1" "D" 533 "nonword" 39 1 448 "1" "unrelated" "padm" "esto" "padmo" "HF" "nonword" 8 8 5 1.5 2.85 0 0 5.68823467341858
"100293" "padmesto" "nonword" "cigro" "SL1_2" "FC19" "1" "D" 610 "nonword" 57 1 484 "1" "unrelated" "padm" "esto" "padmo" "HF" "nonword" 8 8 5 1.5 2.85 0 0 5.68823467341858
"100293" "padmesto" "nonword" "cigro" "SL1_2" "KN25" "1" "D" 927 "nonword" 161 1 537 "1" "unrelated" "padm" "esto" "padmo" "HF" "nonword" 8 8 5 1.5 2.85 0 0 5.68823467341858
"100293" "padmesto" "nonword" "cigro" "SL1_2" "GS36" "2" "D" 1223 "nonword" 325 1 673 "1" "unrelated" "padm" "esto" "padmo" "HF" "nonword" 8 8 5 1.5 2.85 0 0 5.68823467341858
"100293" "padmesto" "nonword" "cigro" "SL1_2" "MR34" "2" "D" 679 "nonword" 285 1 534 "1" "unrelated" "padm" "esto" "padmo" "HF" "nonword" 8 8 5 1.5 2.85 0 0 5.68823467341858
"100293" "padmesto" "nonword" "cigro" "SL1_2" "VP3" "1" "S" 662 "nonword" 52 1 611 "1" "unrelated" "padm" "esto" "padmo" "HF" "nonword" 8 8 5 1.5 2.85 0 0 5.68823467341858
"100293" "padmesto" "nonword" "cigro" "SL1_2" "TF29" "1" "D" 596 "nonword" 88 1 485 "1" "unrelated" "padm" "esto" "padmo" "HF" "nonword" 8 8 5 1.5 2.85 0 0 5.68823467341858
"100293" "padmesto" "nonword" "cigro" "SL1_2" "IM16" "2" "D" 632 "nonword" 26 1 537 "1" "unrelated" "padm" "esto" "padmo" "HF" "nonword" 8 8 5 1.5 2.85 0 0 5.68823467341858
"100293" "padmesto" "nonword" "cigro" "SL1_2" "EC43" "1" "D" 599 "nonword" 213 1 597 "1" "unrelated" "padm" "esto" "padmo" "HF" "nonword" 8 8 5 1.5 2.85 0 0 5.68823467341858
"100293" "padmesto" "nonword" "cigro" "SL1_2" "CM41" "1" "D" 721 "nonword" 195 1 611 "1" "unrelated" "padm" "esto" "padmo" "HF" "nonword" 8 8 5 1.5 2.85 0 0 5.68823467341858
"100293" "padmesto" "nonword" "cigro" "SL1_2" "DR33" "1" "S" 687 "nonword" 192 1 574 "1" "unrelated" "padm" "esto" "padmo" "HF" "nonword" 8 8 5 1.5 2.85 0 0 5.68823467341858
"100293" "padmesto" "nonword" "cigro" "SL1_2" "EF2" "2" "D" 570 "nonword" 96 1 587 "1" "unrelated" "padm" "esto" "padmo" "HF" "nonword" 8 8 5 1.5 2.85 0 0 5.68823467341858
"100293" "padmesto" "nonword" "cigro" "SL1_2" "SB4" "2" "D" 760 "nonword" 293 1 514 "1" "unrelated" "padm" "esto" "padmo" "HF" "nonword" 8 8 5 1.5 2.85 0 0 5.68823467341858
"100293" "padmesto" "nonword" "cigro" "SL1_2" "FM12" "2" "D" 565 "nonword" 182 1 607 "1" "unrelated" "padm" "esto" "padmo" "HF" "nonword" 8 8 5 1.5 2.85 0 0 5.68823467341858
"100293" "padmesto" "nonword" "cigro" "SL1_2" "VB30" "2" "D" 534 "nonword" 95 1 457 "1" "unrelated" "padm" "esto" "padmo" "HF" "nonword" 8 8 5 1.5 2.85 0 0 5.68823467341858
"100293" "padmesto" "nonword" "cigro" "SL1_2" "AG32" "2" "D" 655 "nonword" 61 1 662 "1" "unrelated" "padm" "esto" "padmo" "HF" "nonword" 8 8 5 1.5 2.85 0 0 5.68823467341858
"100293" "padmesto" "nonword" "cigro" "SL1_2" "FB14" "2" "D" 702 "nonword" 287 1 564 "1" "unrelated" "padm" "esto" "padmo" "HF" "nonword" 8 8 5 1.5 2.85 0 0 5.68823467341858
"100293" "padmesto" "nonword" "cigro" "SL1_2" "SS7" "1" "D" 438 "word" 215 0 542 "1" "unrelated" "padm" "esto" "padmo" "HF" "nonword" 8 8 5 1.5 2.85 0 0 5.68823467341858
"100293" "padmesto" "nonword" "cigro" "SL1_2" "LA13" "1" "S" 648 "nonword" 324 1 712 "1" "unrelated" "padm" "esto" "padmo" "HF" "nonword" 8 8 5 1.5 2.85 0 0 5.68823467341858
"100293" "padmesto" "nonword" "cigro" "SL1_2" "ATA27" "1" "D" 559 "nonword" 17 1 539 "1" "unrelated" "padm" "esto" "padmo" "HF" "nonword" 8 8 5 1.5 2.85 0 0 5.68823467341858
"100293" "padmesto" "nonword" "cigro" "SL1_2" "GI37" "1" "D" 684 "nonword" 71 1 571 "1" "unrelated" "padm" "esto" "padmo" "HF" "nonword" 8 8 5 1.5 2.85 0 0 5.68823467341858
"100293" "padmesto" "nonword" "cigro" "SL1_2" "MZ17" "1" "D" 652 "nonword" 169 1 523 "1" "unrelated" "padm" "esto" "padmo" "HF" "nonword" 8 8 5 1.5 2.85 0 0 5.68823467341858
"100293" "padmesto" "nonword" "cigro" "SL1_2" "AG38" "2" "D" 595 "nonword" 279 1 573 "1" "unrelated" "padm" "esto" "padmo" "HF" "nonword" 8 8 5 1.5 2.85 0 0 5.68823467341858
"100293" "padmesto" "nonword" "cigro" "SL1_2" "AD42" "2" "D" 461 "nonword" 327 1 439 "1" "unrelated" "padm" "esto" "padmo" "HF" "nonword" 8 8 5 1.5 2.85 0 0 5.68823467341858
"100293" "padmesto" "nonword" "cigro" "SL1_2" "EDP28" "2" "D" 896 "nonword" 311 1 0 "0" "unrelated" "padm" "esto" "padmo" "HF" "nonword" 8 8 5 1.5 2.85 0 0 5.68823467341858
"100293" "padmesto" "nonword" "cigro" "SL1_2" "AC26" "2" "D" 791 "nonword" 21 1 628 "1" "unrelated" "padm" "esto" "padmo" "HF" "nonword" 8 8 5 1.5 2.85 0 0 5.68823467341858
"100293" "padmesto" "nonword" "cigro" "SL1_2" "AM9" "1" "D" 617 "nonword" 141 1 512 "1" "unrelated" "padm" "esto" "padmo" "HF" "nonword" 8 8 5 1.5 2.85 0 0 5.68823467341858
"100293" "padmesto" "nonword" "cigro" "SL1_2" "GP45" "1" "D" 714 "nonword" 311 1 538 "1" "unrelated" "padm" "esto" "padmo" "HF" "nonword" 8 8 5 1.5 2.85 0 0 5.68823467341858
"100293" "padmesto" "nonword" "cigro" "SL1_2" "FT31" "1" "D" 739 "nonword" 93 1 508 "1" "unrelated" "padm" "esto" "padmo" "HF" "nonword" 8 8 5 1.5 2.85 0 0 5.68823467341858
"100293" "padmesto" "nonword" "cigro" "SL1_2" "SC15" "1" "D" 799 "nonword" 259 1 627 "1" "unrelated" "padm" "esto" "padmo" "HF" "nonword" 8 8 5 1.5 2.85 0 0 5.68823467341858
"100293" "padmesto" "nonword" "cigro" "SL1_2" "FC5" "1" "D" 829 "nonword" 146 1 692 "1" "unrelated" "padm" "esto" "padmo" "HF" "nonword" 8 8 5 1.5 2.85 0 0 5.68823467341858
"100293" "padmesto" "nonword" "cigro" "SL1_2" "GZ35" "1" "D" 610 "nonword" 67 1 564 "1" "unrelated" "padm" "esto" "padmo" "HF" "nonword" 8 8 5 1.5 2.85 0 0 5.68823467341858
"100293" "padmesto" "nonword" "cigro" "SL1_2" "LS11" "1" "D" 626 "nonword" 18 1 520 "1" "unrelated" "padm" "esto" "padmo" "HF" "nonword" 8 8 5 1.5 2.85 0 0 5.68823467341858
"100293" "padmesto" "nonword" "cigro" "SL1_2" "NJ39" "1" "D" 543 "nonword" 309 1 652 "1" "unrelated" "padm" "esto" "padmo" "HF" "nonword" 8 8 5 1.5 2.85 0 0 5.68823467341858
"100293" "padmesto" "nonword" "cigro" "SL1_2" "EA1" "1" "D" 778 "nonword" 218 1 840 "1" "unrelated" "padm" "esto" "padmo" "HF" "nonword" 8 8 5 1.5 2.85 0 0 5.68823467341858
"100293" "padmesto" "nonword" "cigro" "SL1_2" "LD18" "2" "D" 563 "word" 38 0 547 "1" "unrelated" "padm" "esto" "padmo" "HF" "nonword" 8 8 5 1.5 2.85 0 0 5.68823467341858
"100293" "padmesto" "nonword" "cigro" "SL1_2" "RZ20" "2" "D" 707 "nonword" 124 1 675 "1" "unrelated" "padm" "esto" "padmo" "HF" "nonword" 8 8 5 1.5 2.85 0 0 5.68823467341858
"100314" "peltosso" "nonword" "rolpo" "SL1_2" "DV40" "2" "D" 847 "nonword" 141 1 748 "1" "unrelated" "pelt" "osso" "pelte" "HF" "nonword" 12 8 5 1.35 2.75 0.778151250383644 0 5.26423207474528
"100314" "peltosso" "nonword" "rolpo" "SL1_2" "EA1" "1" "D" 687 "nonword" 30 1 567 "1" "unrelated" "pelt" "osso" "pelte" "HF" "nonword" 12 8 5 1.35 2.75 0.778151250383644 0 5.26423207474528
"100314" "peltosso" "nonword" "rolpo" "SL1_2" "KN25" "1" "D" 640 "nonword" 214 1 512 "1" "unrelated" "pelt" "osso" "pelte" "HF" "nonword" 12 8 5 1.35 2.75 0.778151250383644 0 5.26423207474528
"100314" "peltosso" "nonword" "rolpo" "SL1_2" "VP3" "1" "S" 648 "nonword" 66 1 608 "1" "unrelated" "pelt" "osso" "pelte" "HF" "nonword" 12 8 5 1.35 2.75 0.778151250383644 0 5.26423207474528
"100314" "peltosso" "nonword" "rolpo" "SL1_2" "MB23" "1" "D" 527 "nonword" 240 1 689 "1" "unrelated" "pelt" "osso" "pelte" "HF" "nonword" 12 8 5 1.35 2.75 0.778151250383644 0 5.26423207474528
"100314" "peltosso" "nonword" "rolpo" "SL1_2" "GM10" "2" "D" 597 "nonword" 188 1 686 "1" "unrelated" "pelt" "osso" "pelte" "HF" "nonword" 12 8 5 1.35 2.75 0.778151250383644 0 5.26423207474528
"100314" "peltosso" "nonword" "rolpo" "SL1_2" "SB4" "2" "D" 808 "nonword" 83 1 562 "1" "unrelated" "pelt" "osso" "pelte" "HF" "nonword" 12 8 5 1.35 2.75 0.778151250383644 0 5.26423207474528
"100314" "peltosso" "nonword" "rolpo" "SL1_2" "GS36" "2" "D" 961 "nonword" 303 1 646 "1" "unrelated" "pelt" "osso" "pelte" "HF" "nonword" 12 8 5 1.35 2.75 0.778151250383644 0 5.26423207474528
"100314" "peltosso" "nonword" "rolpo" "SL1_2" "LD18" "2" "D" 644 "nonword" 121 1 552 "1" "unrelated" "pelt" "osso" "pelte" "HF" "nonword" 12 8 5 1.35 2.75 0.778151250383644 0 5.26423207474528
"100314" "peltosso" "nonword" "rolpo" "SL1_2" "FC19" "1" "D" 620 "nonword" 289 1 555 "1" "unrelated" "pelt" "osso" "pelte" "HF" "nonword" 12 8 5 1.35 2.75 0.778151250383644 0 5.26423207474528
"100314" "peltosso" "nonword" "rolpo" "SL1_2" "IM16" "2" "D" 634 "nonword" 329 1 472 "1" "unrelated" "pelt" "osso" "pelte" "HF" "nonword" 12 8 5 1.35 2.75 0.778151250383644 0 5.26423207474528
"100314" "peltosso" "nonword" "rolpo" "SL1_2" "EF44" "2" "D" 535 "nonword" 99 1 707 "1" "unrelated" "pelt" "osso" "pelte" "HF" "nonword" 12 8 5 1.35 2.75 0.778151250383644 0 5.26423207474528
"100314" "peltosso" "nonword" "rolpo" "SL1_2" "AC26" "2" "D" 692 "nonword" 193 1 573 "1" "unrelated" "pelt" "osso" "pelte" "HF" "nonword" 12 8 5 1.35 2.75 0.778151250383644 0 5.26423207474528
"100314" "peltosso" "nonword" "rolpo" "SL1_2" "MZ17" "1" "D" 602 "nonword" 130 1 460 "1" "unrelated" "pelt" "osso" "pelte" "HF" "nonword" 12 8 5 1.35 2.75 0.778151250383644 0 5.26423207474528
"100314" "peltosso" "nonword" "rolpo" "SL1_2" "DR33" "1" "S" 569 "nonword" 327 1 475 "1" "unrelated" "pelt" "osso" "pelte" "HF" "nonword" 12 8 5 1.35 2.75 0.778151250383644 0 5.26423207474528
"100314" "peltosso" "nonword" "rolpo" "SL1_2" "GS24" "2" "D" 650 "nonword" 276 1 511 "1" "unrelated" "pelt" "osso" "pelte" "HF" "nonword" 12 8 5 1.35 2.75 0.778151250383644 0 5.26423207474528
"100314" "peltosso" "nonword" "rolpo" "SL1_2" "MR34" "2" "D" 573 "nonword" 223 1 488 "1" "unrelated" "pelt" "osso" "pelte" "HF" "nonword" 12 8 5 1.35 2.75 0.778151250383644 0 5.26423207474528
"100314" "peltosso" "nonword" "rolpo" "SL1_2" "CM41" "1" "D" 715 "nonword" 334 1 545 "1" "unrelated" "pelt" "osso" "pelte" "HF" "nonword" 12 8 5 1.35 2.75 0.778151250383644 0 5.26423207474528
"100314" "peltosso" "nonword" "rolpo" "SL1_2" "EF2" "2" "D" 528 "nonword" 299 1 463 "1" "unrelated" "pelt" "osso" "pelte" "HF" "nonword" 12 8 5 1.35 2.75 0.778151250383644 0 5.26423207474528
"100314" "peltosso" "nonword" "rolpo" "SL1_2" "BA22" "2" "S" 661 "nonword" 206 1 579 "1" "unrelated" "pelt" "osso" "pelte" "HF" "nonword" 12 8 5 1.35 2.75 0.778151250383644 0 5.26423207474528
"100314" "peltosso" "nonword" "rolpo" "SL1_2" "FT31" "1" "D" 676 "nonword" 223 1 605 "1" "unrelated" "pelt" "osso" "pelte" "HF" "nonword" 12 8 5 1.35 2.75 0.778151250383644 0 5.26423207474528
"100314" "peltosso" "nonword" "rolpo" "SL1_2" "AM9" "1" "D" 771 "nonword" 34 1 628 "1" "unrelated" "pelt" "osso" "pelte" "HF" "nonword" 12 8 5 1.35 2.75 0.778151250383644 0 5.26423207474528
"100314" "peltosso" "nonword" "rolpo" "SL1_2" "SC15" "1" "D" 663 "nonword" 137 1 778 "1" "unrelated" "pelt" "osso" "pelte" "HF" "nonword" 12 8 5 1.35 2.75 0.778151250383644 0 5.26423207474528
"100314" "peltosso" "nonword" "rolpo" "SL1_2" "SS7" "1" "D" 700 "nonword" 124 1 505 "1" "unrelated" "pelt" "osso" "pelte" "HF" "nonword" 12 8 5 1.35 2.75 0.778151250383644 0 5.26423207474528
"100314" "peltosso" "nonword" "rolpo" "SL1_2" "ADC8" "2" "D" 509 "nonword" 193 1 517 "1" "unrelated" "pelt" "osso" "pelte" "HF" "nonword" 12 8 5 1.35 2.75 0.778151250383644 0 5.26423207474528
"100314" "peltosso" "nonword" "rolpo" "SL1_2" "NJ39" "1" "D" 795 "nonword" 36 1 535 "1" "unrelated" "pelt" "osso" "pelte" "HF" "nonword" 12 8 5 1.35 2.75 0.778151250383644 0 5.26423207474528
"100314" "peltosso" "nonword" "rolpo" "SL1_2" "FB14" "2" "D" 617 "nonword" 152 1 570 "1" "unrelated" "pelt" "osso" "pelte" "HF" "nonword" 12 8 5 1.35 2.75 0.778151250383644 0 5.26423207474528
"100314" "peltosso" "nonword" "rolpo" "SL1_2" "LS11" "1" "D" 604 "nonword" 98 1 547 "1" "unrelated" "pelt" "osso" "pelte" "HF" "nonword" 12 8 5 1.35 2.75 0.778151250383644 0 5.26423207474528
"100314" "peltosso" "nonword" "rolpo" "SL1_2" "FM12" "2" "D" 623 "nonword" 272 1 567 "1" "unrelated" "pelt" "osso" "pelte" "HF" "nonword" 12 8 5 1.35 2.75 0.778151250383644 0 5.26423207474528
"100314" "peltosso" "nonword" "rolpo" "SL1_2" "AG38" "2" "D" 676 "nonword" 269 1 492 "1" "unrelated" "pelt" "osso" "pelte" "HF" "nonword" 12 8 5 1.35 2.75 0.778151250383644 0 5.26423207474528
"100314" "peltosso" "nonword" "rolpo" "SL1_2" "ET21" "1" "D" 577 "nonword" 240 1 566 "1" "unrelated" "pelt" "osso" "pelte" "HF" "nonword" 12 8 5 1.35 2.75 0.778151250383644 0 5.26423207474528
"100314" "peltosso" "nonword" "rolpo" "SL1_2" "ATA27" "1" "D" 663 "nonword" 207 1 512 "1" "unrelated" "pelt" "osso" "pelte" "HF" "nonword" 12 8 5 1.35 2.75 0.778151250383644 0 5.26423207474528
"100314" "peltosso" "nonword" "rolpo" "SL1_2" "RZ20" "2" "D" 764 "nonword" 103 1 1210 "1" "unrelated" "pelt" "osso" "pelte" "HF" "nonword" 12 8 5 1.35 2.75 0.778151250383644 0 5.26423207474528
"100314" "peltosso" "nonword" "rolpo" "SL1_2" "AD42" "2" "D" 580 "nonword" 299 1 523 "1" "unrelated" "pelt" "osso" "pelte" "HF" "nonword" 12 8 5 1.35 2.75 0.778151250383644 0 5.26423207474528
"100314" "peltosso" "nonword" "rolpo" "SL1_2" "GZ35" "1" "D" 553 "nonword" 117 1 556 "1" "unrelated" "pelt" "osso" "pelte" "HF" "nonword" 12 8 5 1.35 2.75 0.778151250383644 0 5.26423207474528
"100314" "peltosso" "nonword" "rolpo" "SL1_2" "FC5" "1" "D" 636 "nonword" 135 1 738 "1" "unrelated" "pelt" "osso" "pelte" "HF" "nonword" 12 8 5 1.35 2.75 0.778151250383644 0 5.26423207474528
"100314" "peltosso" "nonword" "rolpo" "SL1_2" "VB30" "2" "D" 581 "nonword" 191 1 535 "1" "unrelated" "pelt" "osso" "pelte" "HF" "nonword" 12 8 5 1.35 2.75 0.778151250383644 0 5.26423207474528
"100314" "peltosso" "nonword" "rolpo" "SL1_2" "FC4" "2" "D" 638 "nonword" 83 1 567 "1" "unrelated" "pelt" "osso" "pelte" "HF" "nonword" 12 8 5 1.35 2.75 0.778151250383644 0 5.26423207474528
"100314" "peltosso" "nonword" "rolpo" "SL1_2" "AG32" "2" "D" 967 "nonword" 153 1 835 "1" "unrelated" "pelt" "osso" "pelte" "HF" "nonword" 12 8 5 1.35 2.75 0.778151250383644 0 5.26423207474528
"100314" "peltosso" "nonword" "rolpo" "SL1_2" "GI37" "1" "D" 720 "nonword" 108 1 534 "1" "unrelated" "pelt" "osso" "pelte" "HF" "nonword" 12 8 5 1.35 2.75 0.778151250383644 0 5.26423207474528
"100314" "peltosso" "nonword" "rolpo" "SL1_2" "EC43" "1" "D" 733 "nonword" 279 1 605 "1" "unrelated" "pelt" "osso" "pelte" "HF" "nonword" 12 8 5 1.35 2.75 0.778151250383644 0 5.26423207474528
"100314" "peltosso" "nonword" "rolpo" "SL1_2" "GP45" "1" "D" 736 "nonword" 37 1 435 "1" "unrelated" "pelt" "osso" "pelte" "HF" "nonword" 12 8 5 1.35 2.75 0.778151250383644 0 5.26423207474528
"100314" "peltosso" "nonword" "rolpo" "SL1_2" "LA13" "1" "S" 758 "nonword" 155 1 473 "1" "unrelated" "pelt" "osso" "pelte" "HF" "nonword" 12 8 5 1.35 2.75 0.778151250383644 0 5.26423207474528
"100314" "peltosso" "nonword" "rolpo" "SL1_2" "TF29" "1" "D" 576 "nonword" 197 1 549 "1" "unrelated" "pelt" "osso" "pelte" "HF" "nonword" 12 8 5 1.35 2.75 0.778151250383644 0 5.26423207474528
"100314" "peltosso" "nonword" "rolpo" "SL1_2" "EDP28" "2" "D" 603 "nonword" 38 1 519 "1" "unrelated" "pelt" "osso" "pelte" "HF" "nonword" 12 8 5 1.35 2.75 0.778151250383644 0 5.26423207474528
"100376" "ruaioco" "nonword" "faba" "SL1_2" "GI37" "1" "D" 724 "nonword" 195 1 638 "1" "unrelated" "ruai" "oco" "ruai" "HF" "nonword" 11 7 4 1 2.85 0 0 4.77659223358054
"100376" "ruaioco" "nonword" "faba" "SL1_2" "MB23" "1" "D" 874 "nonword" 21 1 503 "1" "unrelated" "ruai" "oco" "ruai" "HF" "nonword" 11 7 4 1 2.85 0 0 4.77659223358054
"100376" "ruaioco" "nonword" "faba" "SL1_2" "TF29" "1" "D" 518 "nonword" 288 1 503 "1" "unrelated" "ruai" "oco" "ruai" "HF" "nonword" 11 7 4 1 2.85 0 0 4.77659223358054
"100376" "ruaioco" "nonword" "faba" "SL1_2" "FC19" "1" "D" 465 "nonword" 255 1 399 "1" "unrelated" "ruai" "oco" "ruai" "HF" "nonword" 11 7 4 1 2.85 0 0 4.77659223358054
"100376" "ruaioco" "nonword" "faba" "SL1_2" "BA22" "2" "S" 675 "nonword" 31 1 539 "1" "unrelated" "ruai" "oco" "ruai" "HF" "nonword" 11 7 4 1 2.85 0 0 4.77659223358054
"100376" "ruaioco" "nonword" "faba" "SL1_2" "ATA27" "1" "D" 599 "nonword" 154 1 567 "1" "unrelated" "ruai" "oco" "ruai" "HF" "nonword" 11 7 4 1 2.85 0 0 4.77659223358054
"100376" "ruaioco" "nonword" "faba" "SL1_2" "GS24" "2" "D" 562 "nonword" 298 1 483 "1" "unrelated" "ruai" "oco" "ruai" "HF" "nonword" 11 7 4 1 2.85 0 0 4.77659223358054
"100376" "ruaioco" "nonword" "faba" "SL1_2" "GS36" "2" "D" 1192 "nonword" 300 1 640 "1" "unrelated" "ruai" "oco" "ruai" "HF" "nonword" 11 7 4 1 2.85 0 0 4.77659223358054
"100376" "ruaioco" "nonword" "faba" "SL1_2" "SC15" "1" "D" 535 "nonword" 84 1 501 "1" "unrelated" "ruai" "oco" "ruai" "HF" "nonword" 11 7 4 1 2.85 0 0 4.77659223358054
"100376" "ruaioco" "nonword" "faba" "SL1_2" "EC43" "1" "D" 650 "nonword" 183 1 457 "1" "unrelated" "ruai" "oco" "ruai" "HF" "nonword" 11 7 4 1 2.85 0 0 4.77659223358054
"100376" "ruaioco" "nonword" "faba" "SL1_2" "FC5" "1" "D" 584 "nonword" 94 1 474 "1" "unrelated" "ruai" "oco" "ruai" "HF" "nonword" 11 7 4 1 2.85 0 0 4.77659223358054
"100376" "ruaioco" "nonword" "faba" "SL1_2" "AD42" "2" "D" 456 "word" 310 0 556 "1" "unrelated" "ruai" "oco" "ruai" "HF" "nonword" 11 7 4 1 2.85 0 0 4.77659223358054
"100376" "ruaioco" "nonword" "faba" "SL1_2" "SB4" "2" "D" 692 "nonword" 267 1 521 "1" "unrelated" "ruai" "oco" "ruai" "HF" "nonword" 11 7 4 1 2.85 0 0 4.77659223358054
"100376" "ruaioco" "nonword" "faba" "SL1_2" "IM16" "2" "D" 712 "nonword" 80 1 580 "1" "unrelated" "ruai" "oco" "ruai" "HF" "nonword" 11 7 4 1 2.85 0 0 4.77659223358054
"100376" "ruaioco" "nonword" "faba" "SL1_2" "FM12" "2" "D" 843 "nonword" 67 1 533 "1" "unrelated" "ruai" "oco" "ruai" "HF" "nonword" 11 7 4 1 2.85 0 0 4.77659223358054
"100376" "ruaioco" "nonword" "faba" "SL1_2" "EF44" "2" "D" 790 "nonword" 150 1 695 "1" "unrelated" "ruai" "oco" "ruai" "HF" "nonword" 11 7 4 1 2.85 0 0 4.77659223358054
"100376" "ruaioco" "nonword" "faba" "SL1_2" "LD18" "2" "D" 489 "nonword" 326 1 512 "1" "unrelated" "ruai" "oco" "ruai" "HF" "nonword" 11 7 4 1 2.85 0 0 4.77659223358054
"100376" "ruaioco" "nonword" "faba" "SL1_2" "AG38" "2" "D" 837 "nonword" 245 1 879 "1" "unrelated" "ruai" "oco" "ruai" "HF" "nonword" 11 7 4 1 2.85 0 0 4.77659223358054
"100376" "ruaioco" "nonword" "faba" "SL1_2" "KN25" "1" "D" 946 "nonword" 127 1 538 "1" "unrelated" "ruai" "oco" "ruai" "HF" "nonword" 11 7 4 1 2.85 0 0 4.77659223358054
